File: TGA-MS/BASELINE1.D/tic_front.csv
D:\GAILLARD\WALLACE_SAMUEL\BASELINE1.D  3 Sep 21  12:32 pm
Start of data points
0.09615,142325
0.183783,142896
0.271417,135546
0.35905,131358
0.446667,129852
0.5343,129748
0.621933,131423
0.709567,136477
0.7972,140605
0.884833,142900
0.97245,145349
1.06008,148887
1.14772,150823
1.23535,151852
1.32298,82368
1.41062,53802
1.49823,34767
1.58587,34607
1.6735,32423
1.76113,32271
1.84877,31631
1.93638,31993
2.02402,32684
2.11165,32015
2.19928,31989
2.28692,32823
2.37455,675457
2.46217,36028
2.5498,34747
2.63743,32806
2.72507,32516
2.8127,31584
2.90032,32391
2.98795,32124
3.07558,31819
3.16322,32009
3.25085,32541
3.33848,2357095
3.4261,36068
3.51373,33836
3.60137,33054
3.689,31218
3.77663,31431
3.86427,31535
3.95188,31348
4.03952,31329
4.12715,31954
4.21478,32186
4.30242,34239
4.39003,96613
4.47767,34379
4.5653,33030
4.65293,32281
4.74057,32058
4.8282,31488
4.91582,31697
5.00345,31571
5.09108,31608
5.17872,31354
5.26635,31558
5.35398,2630183
5.4416,35694
5.52923,33502
5.61687,31517
5.7045,31587
5.79213,31357
5.87975,30753
5.96738,31645
6.05502,31589
6.14265,32021
6.23028,31702
6.31792,62443
6.40553,39305
6.49317,34163
6.5808,33534
6.66843,30887
6.75607,31809
6.84368,30275
6.93132,31051
7.01895,30848
7.10658,31143
7.19422,31544
7.28185,31556
7.36947,837335
7.4571,33347
7.54473,32530
7.63237,30858
7.72,31530
7.80763,30964
7.89525,30741
7.98288,30794
8.07052,31050
8.15815,30710
8.24578,30984
8.3334,1197470
8.42103,36022
8.50867,33517
8.5963,31408
8.68393,31134
8.77157,30454
8.85918,30186
8.94682,31135
9.03445,30978
9.12208,30404
9.20972,31113
9.29735,32772
9.38497,131135
9.4726,33522
9.56023,32544
9.64787,30196
9.7355,31022
9.82312,31770
9.91075,30424
9.99838,31006
10.086,30607
10.1737,30440
10.2613,30700
10.3489,2519036
10.4365,33915
10.5242,33119
10.6118,30996
10.6994,30683
10.7871,30726
10.8747,30740
10.9623,31122
11.05,30866
11.1376,30388
11.2252,30771
11.3128,34542
11.4005,44158
11.4881,33267
11.5757,31805
11.6634,30828
11.751,30445
11.8386,30231
11.9263,30726
12.0139,29497
12.1015,30777
12.1892,30494
12.2768,30777
12.3644,1232796
12.452,33991
12.5397,32491
12.6273,31505
12.7149,30805
12.8026,30526
12.8902,30886
12.9778,30264
13.0655,30275
13.1531,30469
13.2407,29691
13.3283,468384
13.416,34588
13.5036,33271
13.5912,31001
13.6789,30686
13.7665,29879
13.8541,30852
13.9418,30455
14.0294,31267
14.117,29540
14.2047,30674
14.2923,31951
14.3799,224174
14.4675,33134
14.5552,32700
14.6428,30819
14.7304,31074
14.8181,30289
14.9057,31852
14.9933,31109
15.081,30095
15.1686,30541
15.2562,30278
15.3438,2282789
15.4315,33768
15.5191,32928
15.6067,31116
15.6944,30749
15.782,30743
15.8696,30483
15.9573,29854
16.0449,30136
16.1325,30032
16.2202,30993
16.3078,31519
16.3954,53726
16.483,33377
16.5707,32187
16.6583,30915
16.7459,29930
16.8335,30207
16.9212,30598
17.0088,30186
17.0965,30682
17.1841,30549
17.2717,30103
17.3593,1779091
17.447,33211
17.5346,32772
17.6222,30427
17.7099,30334
17.7975,30668
17.8851,30622
17.9728,30814
18.0604,30168
18.148,29732
18.2356,30120
18.3233,151368
18.4109,36426
18.4985,32822
18.5862,31356
18.6738,29772
18.7614,30128
18.8491,29725
18.9367,29423
19.0243,29780
19.112,30258
19.1996,30585
19.2872,30622
19.3748,402325
19.4625,32469
19.5501,33073
19.6377,30153
19.7254,29951
19.813,29772
19.9006,29961
19.9883,31032
20.0759,30105
20.1635,30085
20.2511,29492
20.3388,1778589
20.4264,33512
20.514,31803
20.6017,29808
20.6893,30726
20.7769,29372
20.8646,30125
20.9522,29051
21.0398,29889
21.1275,30001
21.2151,30993
21.3027,30596
21.3903,76274
21.478,33641
21.5656,32081
21.6532,30471
21.7409,29211
21.8285,29520
21.9161,30288
22.0038,30300
22.0914,30206
22.179,30621
22.2666,29428
22.3543,2277625
22.4419,33434
22.5295,32375
22.6172,30181
22.7048,29341
22.7924,29665
22.8801,30136
22.9677,30320
23.0553,29255
23.1429,29312
23.2306,30080
23.3182,52895
23.4058,38772
23.4935,32459
23.5811,30676
23.6687,29297
23.7564,29201
23.844,29910
23.9316,29464
24.0193,29100
24.1069,29785
24.1945,29151
24.2821,29357
24.3698,772927
24.4574,32483
24.545,31658
24.6327,30278
24.7203,30036
24.8079,29255
24.8956,30613
24.9832,29826
25.0708,30145
25.1584,29339
25.2461,29873
25.3337,1088709
25.4213,32802
25.509,31921
25.5966,30918
25.6842,29545
25.7719,29367
25.8595,29604
25.9471,29832
26.0348,29194
26.1224,29588
26.21,30046
26.2976,31453
26.3853,128350
26.4729,32419
26.5605,31360
26.6482,29701
26.7358,30370
26.8234,29057
26.9111,29593
26.9987,28843
27.0863,28793
27.1739,29798
27.2616,30113
27.3492,2543762
27.4368,32059
27.5245,32750
27.6121,29149
27.6997,30118
27.7874,29704
27.875,29170
27.9626,29568
28.0503,29225
28.1379,29248
28.2255,29993
28.3131,33490
28.4008,43962
28.4884,32030
28.576,30861
28.6637,30016
28.7513,29660
28.8389,29523
28.9266,29142
29.0142,29239
29.1018,29386
29.1894,29083
29.2771,29113
29.3647,1334163
29.4523,32871
29.54,31428
29.6276,28981
29.7152,29183
29.8029,30061
29.8905,29735
29.9781,30131
30.0657,28560
30.1534,29140
30.241,29792
30.3286,459325
30.4163,33963
30.5039,31996
30.5915,30657
30.6792,29627
30.7668,29214
30.8544,29090
30.9421,29248
31.0297,29564
31.1173,29362
31.2049,29256
31.2926,30796
31.3802,243664
31.4678,31555
31.5555,31975
31.6431,29459
31.7307,29384
31.8184,28947
31.906,28754
31.9936,28973
32.0812,29388
32.1689,30447
32.2565,28956
32.3441,2484712
32.4318,33445
32.5194,30974
32.607,30602
32.6947,30059
32.7823,29802
32.8699,29404
32.9575,29699
33.0452,29011
33.1328,29747
33.2204,29123
33.3081,30871
33.3957,56773
33.4833,32737
33.571,31621
33.6586,30260
33.7462,30419
33.8338,28938
33.9215,30297
34.0091,29487
34.0967,29105
34.1844,28535
34.272,28551
34.3596,2028106
34.4473,32160
34.5349,31983
34.6225,29615
34.7101,29451
34.7978,29308
34.8854,28974
34.9731,29909
35.0607,29125
35.1483,30201
35.2359,30143
35.3236,145647
35.4112,34694
35.4988,31703
35.5864,31325
35.6741,29113
35.7617,30020
35.8494,30449
35.937,29028
36.0246,28944
36.1122,29322
36.1999,29648
36.2875,30216
36.3751,489003
36.4628,32758
36.5504,30873
36.638,29078
36.7257,29082
36.8133,29343
36.9009,29137
36.9885,29401
37.0762,29396
37.1638,29101
37.2514,29484
37.3391,1892281
37.4267,33697
37.5143,32474
37.602,29662
37.6896,29379
37.7772,28915
37.8649,29406
37.9525,29003
38.0401,29368
38.1277,29353
38.2154,29160
38.303,31200
38.3906,86917
38.4783,31646
38.5659,30679
38.6535,29621
38.7412,29926
38.8288,29467
38.9164,28342
39.004,29511
39.0917,28711
39.1793,29352
39.2669,28345
39.3546,2593546
39.4422,32447
39.5298,31525
39.6175,29435
39.7051,28717
39.7927,29617
39.8804,30819
39.968,29343
40.0556,29339
40.1432,29074
40.2309,29371
40.3185,51441
40.4061,38241
40.4937,31920
40.5814,31090
40.669,30063
40.7567,28890
40.8443,29481
40.9319,30346
41.0195,29383
41.1072,28863
41.1948,29118
41.2824,28861
41.3701,919380
41.4577,31560
41.5453,30944
41.633,28996
41.7206,29862
41.8082,28785
41.8959,29703
41.9835,28433
42.0711,29574
42.1587,29033
42.2464,29425
42.334,1107849
42.4216,33934
42.5093,31922
42.5969,29638
42.6845,29577
42.7722,29458
42.8598,29791
42.9474,30188
43.035,30377
43.1227,28728
43.2103,28665
43.2979,30813
43.3856,146636
43.4732,31102
43.5608,31628
43.6485,29529
43.7361,29366
43.8237,29818
43.9113,29162
43.999,29103
44.0866,29605
44.1742,29061
44.2619,29020
44.3495,2763405
44.4371,32531
44.5248,31688
44.6124,29271
44.7,30149
44.7876,29003
44.8753,29702
44.9629,29366
45.0505,29644
45.1382,29530
45.2258,29098
45.3134,32873
45.4011,44896
45.4887,31816
45.5763,31542
45.664,29030
45.7516,29627
45.8392,29054
45.9268,29603
46.0145,29106
46.1021,29561
46.1897,29428
46.2774,30223
46.365,1587282
46.4526,33037
46.5403,32508
46.6279,29867
46.7155,29956
46.8032,29727
46.8908,29447
46.9784,29723
47.066,30258
47.1537,30030
47.2413,28669
47.3289,464454
47.4166,33996
47.5042,31780
47.5918,30453
47.6795,29963
47.7671,28988
47.8547,29012
47.9423,29290
48.03,28913
48.1176,29519
48.2052,29715
48.2929,31059
48.3805,290343
48.4681,31423
48.5558,32121
48.6434,30241
48.731,29604
48.8187,29342
48.9063,29471
48.9939,29384
49.0815,29269
49.1692,29869
49.2568,29230
49.3444,2668232
49.4321,32871
49.5197,31828
49.6073,30447
49.695,29657
49.7826,29659
49.8702,29672
49.9578,29315
50.0455,29111
50.1331,29879
50.2207,29969
50.3084,30637
50.396,59744
50.4836,32127
50.5712,30752
50.6589,29215
50.7465,30265
50.8341,29661
50.9218,29532
51.0094,29367
51.097,29319
51.1847,29992
51.2723,29804
51.3599,2319123
51.4476,32777
51.5352,31294
51.6228,29341
51.7105,29679
51.7981,29957
51.8857,30254
51.9733,29147
52.061,29970
52.1486,28870
52.2362,30245
52.3239,151304
52.4115,36403
52.4991,32210
52.5868,30692
52.6744,29269
52.762,29660
52.8496,28919
52.9373,30222
53.0249,29729
53.1125,28720
53.2002,29943
53.2878,30117
53.3754,569259
53.4631,31739
53.5507,31572
53.6383,29998
53.726,29029
53.8136,29718
53.9012,29711
53.9888,29214
54.0765,29456
54.1641,29483
54.2517,29460
54.3394,2157972
54.427,33276
54.5146,31913
54.6023,29719
54.6899,29490
54.7775,29144
54.8651,28540
54.9528,29300
55.0404,28986
55.128,29419
55.2157,29648
55.3033,31152
55.3909,94795
55.4786,31142
55.5662,30481
55.6538,29941
55.7414,30114
55.8291,30296
55.9167,29511
56.0043,29246
56.092,29594
56.1796,29352
56.2672,29501
56.3549,2833402
56.4425,32129
56.5301,31128
56.6178,30296
56.7054,30295
56.793,29149
56.8806,29791
56.9683,28950
57.0559,29812
57.1435,29615
57.2312,29571
57.3188,53810
57.4064,39099
57.4941,30784
57.5817,31299
57.6693,29152
57.7569,29084
57.8446,29392
57.9322,29047
58.0198,29198
58.1075,29495
58.1951,29768
58.2827,29151
58.3704,1127144
58.458,31603
58.5456,31983
58.6333,29872
58.7209,30646
58.8085,29320
58.8961,29619
58.9838,29183
59.0714,29678
59.159,29346
59.2467,29233
59.3343,1302302
59.4219,33617
59.5096,31017
59.5972,29661
59.6848,30449
59.7724,29389
59.8601,30012
59.9477,28727
60.0353,29295
60.123,29347
60.2106,29423
60.2982,31177
60.3859,171649
60.4735,32125
60.5611,32285
60.6488,29997
60.7364,29272
60.824,29481
60.9116,29679
60.9993,29295
61.0869,29014
61.1745,28958
61.2622,29169
61.3498,3056636
61.4374,32763
61.5251,31350
61.6127,30019
61.7003,28898
61.7879,29003
61.8756,30240
61.9632,29347
62.0508,28971
62.1385,29863
62.2261,28804
62.3137,32390
62.4014,47833
62.489,32032
62.5766,30730
62.6642,29455
62.7519,29337
62.8395,29632
62.9271,29498
63.0148,28918
63.1024,29575
63.19,29132
63.2777,30111
63.3653,1914451
63.4529,32070
63.5406,32433
63.6282,29248
63.7158,29364
63.8034,30107
63.8911,30113
63.9787,29302
64.0663,29509
64.1539,29389
64.2416,28388
64.3292,559111
64.4168,33730
64.5045,31485
64.5921,29839
64.6797,29781
64.7674,29664
64.855,29523
64.9426,29187
65.0303,29211
65.1179,29229
65.2055,28415
65.2931,30626
65.3808,350459
65.4684,31337
65.556,31711
65.6437,28898
65.7313,29136
65.8189,30159
65.9066,28423
65.9942,29140
66.0818,29453
66.1694,29544
66.2571,29254
66.3447,2994265
66.4324,31458
66.52,31351
66.6076,30554
66.6952,29665
66.7829,28907
66.8705,29183
66.9581,29491
67.0458,29723
67.1334,29511
67.221,29779
67.3087,30700
67.3963,64511
67.4839,31052
67.5716,31046
67.6592,28839
67.7468,29926
67.8344,29097
67.9221,29764
68.0097,29765
68.0973,29416
68.185,28897
68.2726,28538
68.3602,2703051
68.4479,31797
68.5355,30447
68.6231,29238
68.7107,29219
68.7984,28952
68.886,28342
68.9736,28115
69.0613,28615
69.1489,28659
69.2365,29639
69.3242,166617
69.4118,36867
69.4994,31323
69.587,29740
69.6747,28932
69.7623,29212
69.8499,28210
69.9376,28710
70.0252,28915
70.1128,29161
70.2005,29183
70.2881,29668
70.3757,720175
70.4634,31589
70.551,31007
70.6386,28673
70.7262,29585
70.8139,28999
70.9015,28196
70.9891,28933
71.0768,28295
71.1644,29666
71.252,28662
71.3397,2471192
71.4273,32266
71.5149,31269
71.6025,29514
71.6902,28944
71.7778,28206
71.8654,29226
71.9531,29422
72.0407,28711
72.1283,29127
72.216,28682
72.3036,30002
72.3912,104612
72.4789,30992
72.5665,30923
72.6541,30087
72.7417,28711
72.8294,28939
72.917,28817
73.0046,28593
73.0923,28567
73.1799,28466
73.2675,29195
73.3552,3171281
73.4428,32092
73.5304,30306
73.618,29036
73.7057,28647
73.7933,29436
73.8809,28923
73.9686,28441
74.0562,28237
74.1438,28718
74.2315,28832
74.3191,53708
74.4067,39260
74.4943,31005
74.582,30712
74.6696,28895
74.7572,29114
74.8449,28561
74.9325,29408
75.0201,27934
75.1078,28944
75.1954,28811
75.283,28629
75.3706,1371731
75.4583,30937
75.5459,30437
75.6335,28482
75.7212,29794
75.8088,28546
75.8964,28719
75.9841,29452
76.0717,28933
76.1593,29066
76.2469,28723
76.3346,1442835
76.4222,32388
76.5098,31032
76.5975,28196
76.6851,29043
76.7727,29548
76.8604,29341
76.948,28364
77.0356,28269
77.1232,29034
77.2109,28904
77.2985,30323
77.3862,203265
77.4738,30461
77.5614,31469
77.649,28733
77.7367,28898
77.8243,28667
77.9119,28906
77.9995,28840
78.0872,28926
78.1748,29108
78.2625,28917
78.3501,3337739
78.4377,31625
78.5253,30886
78.613,28797
78.7006,28501
78.7882,28430
78.8759,28867
78.9635,28983
79.0511,29135
79.1388,28660
79.2264,29128
79.314,31767
79.4017,50111
79.4893,31090
79.5769,30429
79.6645,28756
79.7522,27729
79.8398,30076
79.9274,28859
80.0151,29127
80.1027,28843
80.1903,27722
80.278,27666
80.3656,2233168
80.4532,31245
80.5408,30646
80.6285,28470
80.7161,28258
80.8037,28640
80.8914,28429
80.979,28263
81.0666,28849
81.1543,28370
81.2419,28494
81.3295,563524
81.4171,33452
81.5048,30884
81.5924,29145
81.68,28622
81.7677,28578
81.8553,28339
81.9429,29555
82.0306,28839
82.1182,28632
82.2058,29015
82.2935,30126
82.3811,400559
82.4687,30797
82.5563,31072
82.644,28753
82.7316,29444
82.8192,27960
82.9069,29428
82.9945,28331
83.0821,28524
83.1698,28327
83.2574,27903
83.345,3158551
83.4326,31379
83.5203,31753
83.6079,28360
83.6955,28413
83.7832,29137
83.8708,28003
83.9584,29319
84.0461,28576
84.1337,28225
84.2213,28108
84.309,30454
84.3966,69707
84.4842,30934
84.5718,30371
84.6595,28645
84.7471,28233
84.8347,28740
84.9224,29196
85.01,29113
85.0976,28312
85.1853,29184
85.2729,28864
85.3605,2935103
85.4481,32380
85.5358,31409
85.6234,27993
85.711,29027
85.7987,28875
85.8863,29226
85.9739,29105
86.0616,28879
86.1492,29043
86.2368,28244
86.3244,167632
86.4121,34571
86.4997,30624
86.5873,30600
86.675,28627
86.7626,28894
86.8502,29666
86.9378,28558
87.0255,28481
87.1131,28964
87.2007,28994
87.2884,29383
87.376,816550
87.4636,31199
87.5513,31184
87.6389,28268
87.7265,28616
87.8142,29125
87.9018,27862
87.9894,28845
88.0771,28673
88.1647,28638
88.2523,28002
88.3399,2675719
88.4276,32562
88.5152,30847
88.6028,28926
88.6905,28474
88.7781,28296
88.8657,28772
88.9534,29841
89.041,29025
89.1286,28766
89.2163,29215
89.3039,29919
89.3915,119059
89.4791,30986
89.5668,30363
89.6544,29024
89.742,29077
89.8297,27952
89.9173,28283
90.0049,28511
90.0926,27693
90.1802,28811
90.2678,29017
90.3554,3417852
90.4431,31623
90.5307,30415
90.6183,28758
90.706,28713
90.7936,28195
90.8812,28695
90.9689,28092
91.0565,28568
91.1441,28439
91.2318,27796
91.3194,53692
91.407,40580
91.4946,31084
91.5823,29249
91.6699,28841
91.7575,28083
91.8452,28730
91.9328,28699
92.0204,27675
92.1081,28195
92.1957,28476
92.2833,28358
92.3709,1600294
92.4586,31032
92.5462,31129
92.6338,29605
92.7215,28793
92.8091,27387
92.8967,28891
92.9844,28321
93.072,28473
93.1596,28796
93.2473,28266
93.3349,1676083
93.4225,33007
93.5101,31707
93.5978,30000
93.6854,28813
93.773,27870
93.8607,28832
93.9483,28500
94.0359,27343
94.1236,28534
94.2112,28462
94.2988,29982
94.3864,241222
94.4741,31539
94.5617,31315
94.6493,28579
94.737,28761
94.8246,28783
94.9122,28878
94.9999,28112
95.0875,28936
95.1751,29054
95.2627,27758
95.3504,3640470
95.438,32158
95.5256,30668
95.6133,29399
95.7009,28467
95.7885,29054
95.8762,28610
95.9638,28041
96.0514,28956
96.1391,28343
96.2267,28498
96.3143,32082
96.4019,53236
96.4896,30192
96.5772,30139
96.6648,29093
96.7525,28872
96.8401,28513
96.9277,28666
97.0153,29617
97.103,28498
97.1906,29489
97.2782,28729
97.3659,2555244
97.4535,31510
97.5411,29764
97.6288,29027
97.7164,28513
97.804,28506
97.8916,28407
97.9793,28850
98.0669,28998
98.1546,28499
98.2422,28685
98.3298,643640
98.4174,34300
98.5051,30354
98.5927,28142
98.6803,29154
98.7679,28410
98.8556,28814
98.9432,28514
99.0309,27978
99.1185,28168
99.2061,27928
99.2937,29717
99.3814,488254
99.469,31024
99.5566,30009
99.6443,28527
99.7319,29137
99.8195,27838
99.9072,28551
99.9948,28524
100.082,28453
100.17,27662
100.258,28368
100.345,3446751
100.433,32099
100.521,30141
100.608,29158
100.696,27767
100.783,27647
100.871,28038
100.959,28046
101.046,27355
101.134,27922
101.222,28695
101.309,29858
101.397,78613
101.485,30491
101.572,30543
101.66,28606
101.747,28482
101.835,27955
101.923,28779
102.01,28553
102.098,28058
102.186,27976
102.273,28738
102.361,28569
102.448,28633
102.536,29091
102.624,27887
102.711,28290
102.799,28486
102.887,28472
102.974,27961
103.062,27751
103.149,27862
103.237,27368
103.325,28082
103.412,28451
103.5,28818
103.588,28005
103.675,28307
103.763,28148
103.851,28737
103.938,27597
104.026,28750
104.113,29304
104.201,28445
104.289,27827
104.376,28200
104.464,28568
104.552,28945
104.639,28034
104.727,28213
104.814,28446
104.902,28339
104.99,28539
105.077,28718
105.165,28502
105.253,28973
105.34,28524
105.428,27893
105.516,29095
105.603,28171
105.691,29119
105.778,28589
105.866,28755
105.954,27968
106.041,27891
106.129,29280
106.217,28547
106.304,29404
106.392,28933
106.479,28309
106.567,29582
106.655,29658
106.742,29297
106.83,28697
106.918,28994
107.005,28404
107.093,29404
107.18,30037
107.268,29121
107.356,28374
107.443,28765
107.531,28362
107.619,28752
107.706,28371
107.794,28513
107.882,28504
107.969,28993
108.057,29108
108.144,29917
108.232,28739
108.32,28535
108.407,28116
108.495,28565
108.583,28323
108.67,28952
108.758,28794
108.845,29115
108.933,28911
109.021,28916
109.108,30087
109.196,28559
109.284,29174
109.371,29530
109.459,28769
109.547,29180
109.634,28749
109.722,28438
109.809,29375
109.897,29669
109.985,29297
110.072,29668
110.16,29323
110.248,28882
110.335,29445
110.423,29268
110.51,28757
110.598,28434
110.686,28749
110.773,29621
110.861,29458
110.949,28512
111.036,28726
111.124,29315
111.211,28757
111.299,29190
111.387,28793
111.474,28763
111.562,28991
111.65,28968
111.737,29522
111.825,29533
111.913,29488
112,29386
112.088,28136
112.175,28699
112.263,29375
112.351,29265
112.438,29020
112.526,29434
112.614,29032
112.701,29283
112.789,29801
112.876,29251
112.964,29893
113.052,28054
113.139,28680
113.227,28881
113.315,30329
113.402,29188
113.49,30120
113.577,29714
113.665,29298
113.753,28391
113.84,28938
113.928,28684
114.016,30086
114.103,29481
114.191,29469
114.279,29785
114.366,29194
114.454,29791
114.541,28996
114.629,29465
114.717,29576
114.804,28657
114.892,29048
114.98,29598
115.067,29610
115.155,29356
115.242,29669
115.33,30031
115.418,30356
115.505,29340
115.593,29338
115.681,29162
115.768,29562
115.856,29143
115.944,28685
116.031,29342
116.119,30157
116.206,30052
116.294,29070
116.382,29434
116.469,29668
116.557,28793
116.645,30097
116.732,29340
116.82,29671
116.907,29799
116.995,30295
117.083,29237
117.17,30055
117.258,28558
117.346,30764
117.433,29537
117.521,28835
117.608,28805
117.696,28904
117.784,28905
117.871,29589
117.959,29308
118.047,29838
118.134,29187
118.222,30234
118.31,29144
118.397,29835
118.485,29546
118.572,30493
118.66,30013
118.748,29974
118.835,29470
118.923,30520
119.011,29941
119.098,29666
119.186,29636
119.273,29898
119.361,29987
119.449,30316
119.536,29716
119.624,31434
119.712,29498
119.799,29588
119.887,30112
119.975,29786
120.062,29409
120.15,29344
120.237,29570
120.325,30372
120.413,30913
120.5,29719
120.588,30242
120.676,30185
120.763,29878
120.851,30278
120.938,30182
121.026,30167
121.114,29715
121.201,29781
121.289,30201
121.377,30101
121.464,30100
121.552,29709
121.639,30301
121.727,30186
121.815,30021
121.902,30650
121.99,29868
122.078,30477
122.165,30083
122.253,30300
122.341,30718
122.428,29919
122.516,29236
122.603,30936
122.691,29369
122.779,29651
122.866,30510
122.954,30210
123.042,30544
123.129,30196
123.217,29375
123.304,30080
123.392,31197
123.48,30167
123.567,29969
123.655,30617
123.743,30574
123.83,29971
123.918,30203
124.006,30196
124.093,30226
124.181,31027
124.268,30524
124.356,31460
124.444,30640
124.531,30163
124.619,30213
124.707,30586
124.794,30297
124.882,30258
124.969,30745
124.987,30423