File: TGA-MS/DWTROR.D/tic_front.csv
D:\GAILLARD\WALLACE_SAMUEL\DWTROR.D 13 Sep 21  12:27 pm
Start of data points
0.0959667,100457
0.1836,102886
0.271233,95489
0.35885,93132
0.446483,91067
0.534117,93574
0.62175,94025
0.709383,94838
0.797,95777
0.884633,96226
0.972267,98205
1.0599,98169
1.14753,98869
1.23517,99324
1.32278,53984
1.41042,39088
1.49805,22426
1.58568,22052
1.67332,21333
1.76095,20839
1.84857,21973
1.9362,21454
2.02383,21349
2.11147,21219
2.1991,21702
2.28672,21418
2.37435,535122
2.46198,23552
2.54962,22738
2.63725,21722
2.72488,21240
2.8125,21142
2.90013,20563
2.98777,21604
3.0754,21209
3.16303,20942
3.25065,22011
3.33828,1934672
3.42592,23983
3.51355,23452
3.60118,21183
3.68882,21182
3.77643,21267
3.86407,20674
3.9517,21050
4.03933,21024
4.12697,21046
4.2146,20708
4.30222,22516
4.38985,66250
4.47748,23593
4.56512,22405
4.65275,21661
4.74037,20912
4.828,20937
4.91563,20828
5.00327,20473
5.0909,21117
5.17853,21325
5.26615,21267
5.35378,2088933
5.44142,23040
5.52905,22687
5.61668,20831
5.70432,20318
5.79193,21060
5.87957,20581
5.9672,21565
6.05483,21680
6.14247,21514
6.23008,20929
6.31772,42137
6.40535,27466
6.49298,23145
6.58062,22536
6.66825,21248
6.75587,20701
6.8435,21354
6.93113,21018
7.01877,21282
7.1064,21184
7.19403,21453
7.28165,21287
7.36928,629738
7.45692,22468
7.54455,22328
7.63218,21272
7.7198,21427
7.80743,21877
7.89507,21282
7.9827,21391
8.07033,21825
8.15797,21092
8.24558,21438
8.33322,878513
8.42085,24616
8.50848,22945
8.59612,21892
8.68373,21678
8.77137,21905
8.859,21050
8.94663,21674
9.03427,21083
9.1219,21020
9.20952,21480
9.29715,23131
9.38478,100450
9.47242,23370
9.56005,22366
9.64768,21062
9.7353,20693
9.82293,21610
9.91057,21052
9.9982,20592
10.0858,21073
10.1735,21206
10.2611,21494
10.3487,1952538
10.4364,24686
10.524,23460
10.6116,21817
10.6992,21721
10.7869,20818
10.8745,21429
10.9621,21276
11.0498,21334
11.1374,21283
11.225,21335
11.3127,23624
11.4003,35111
11.4879,24050
11.5756,22749
11.6632,21424
11.7508,22427
11.8384,21367
11.9261,21004
12.0137,21887
12.1013,21324
12.189,21250
12.2766,21276
12.3642,985930
12.4519,24965
12.5395,23546
12.6271,22045
12.7147,22269
12.8024,21435
12.89,21661
12.9776,21639
13.0653,21567
13.1529,21107
13.2405,21730
13.3282,310469
13.4158,27130
13.5034,23156
13.5911,22582
13.6787,22271
13.7663,22092
13.8539,21909
13.9416,21443
14.0292,21180
14.1168,21519
14.2045,21166
14.2921,21961
14.3797,186257
14.4674,24795
14.555,23191
14.6426,21983
14.7302,22040
14.8179,21721
14.9055,21745
14.9931,21990
15.0808,22228
15.1684,21379
15.256,22085
15.3437,1757284
15.4313,25972
15.5189,24071
15.6065,21904
15.6942,21479
15.7818,21869
15.8694,21734
15.9571,21888
16.0447,22443
16.1323,21972
16.22,21720
16.3076,22771
16.3952,46666
16.4828,24588
16.5705,23767
16.6581,22795
16.7457,22308
16.8334,21829
16.921,21151
17.0086,21480
17.0963,21639
17.1839,21756
17.2715,21810
17.3592,1376529
17.4468,25510
17.5344,24034
17.622,21591
17.7097,21573
17.7973,21694
17.8849,22067
17.9726,22351
18.0602,21066
18.1478,21458
18.2355,21724
18.3231,101936
18.4107,28851
18.4984,24067
18.586,23004
18.6736,22598
18.7612,22281
18.8489,21969
18.9365,22102
19.0241,22116
19.1118,21342
19.1994,22381
19.287,22339
19.3747,322163
19.4623,25393
19.5499,24224
19.6375,22101
19.7252,22096
19.8128,22490
19.9004,21173
19.9881,22389
20.0757,21981
20.1633,21974
20.251,22484
20.3386,1334568
20.4262,26240
20.5139,24607
20.6015,22083
20.6891,22186
20.7767,21979
20.8644,21713
20.952,21484
21.0396,22287
21.1273,22655
21.2149,21315
21.3025,23644
21.3902,62379
21.4778,24641
21.5654,23470
21.653,22326
21.7407,22617
21.8283,22236
21.9159,21885
22.0036,21985
22.0912,22424
22.1788,22251
22.2665,23177
22.3541,1704272
22.4417,25358
22.5293,24242
22.617,22851
22.7046,22052
22.7922,22455
22.8799,22472
22.9675,22548
23.0551,21231
23.1427,22681
23.2304,22248
23.318,38044
23.4057,30188
23.4933,24415
23.5809,23495
23.6685,22428
23.7562,21939
23.8438,22386
23.9314,21762
24.0191,22072
24.1067,22627
24.1943,21917
24.282,22560
24.3696,574117
24.4572,24445
24.5448,24069
24.6325,22808
24.7201,22313
24.8077,22012
24.8954,21829
24.983,22313
25.0706,22928
25.1583,22631
25.2459,21954
25.3335,764454
25.4212,27119
25.5088,24370
25.5964,23018
25.684,22383
25.7717,22660
25.8593,22187
25.9469,22656
26.0346,22651
26.1222,22181
26.2098,22434
26.2975,23350
26.3851,102431
26.4727,25134
26.5603,23307
26.648,22620
26.7356,22641
26.8232,21723
26.9109,22531
26.9985,23074
27.0861,22235
27.1738,22621
27.2614,23236
27.349,1920831
27.4367,24890
27.5243,24081
27.6119,22495
27.6995,22519
27.7872,22527
27.8748,22837
27.9624,22891
28.0501,22783
28.1377,22097
28.2253,22734
28.313,24881
28.4006,35188
28.4882,24999
28.5758,24125
28.6635,22098
28.7511,22770
28.8387,23174
28.9264,22615
29.014,22838
29.1016,22704
29.1893,22588
29.2769,23047
29.3645,1015820
29.4521,25683
29.5398,24393
29.6274,22750
29.715,23327
29.8027,22994
29.8903,23050
29.9779,21922
30.0656,23072
30.1532,22465
30.2408,22788
30.3285,319242
30.4161,28298
30.5037,24914
30.5913,23399
30.679,23405
30.7666,22163
30.8542,22989
30.9419,22743
31.0295,22153
31.1171,23044
31.2048,22737
31.2924,23252
31.38,188591
31.4676,25378
31.5553,24360
31.6429,22189
31.7305,22836
31.8182,23222
31.9058,22284
31.9934,23423
32.081,22912
32.1687,22588
32.2563,23131
32.344,1894153
32.4316,26599
32.5192,24134
32.6068,23008
32.6945,22815
32.7821,23110
32.8697,23608
32.9573,22641
33.045,22507
33.1326,22637
33.2203,22624
33.3079,24045
33.3955,46464
33.4831,25237
33.5708,24006
33.6584,22351
33.746,23702
33.8337,22525
33.9213,21979
34.0089,22645
34.0966,23280
34.1842,23030
34.2718,23030
34.3595,1546163
34.4471,25436
34.5347,24338
34.6223,22371
34.71,22984
34.7976,22627
34.8852,22799
34.9729,22653
35.0605,22725
35.1481,22881
35.2358,22577
35.3234,109419
35.411,28461
35.4986,24673
35.5863,23835
35.6739,23680
35.7615,22771
35.8492,22313
35.9368,22852
36.0244,22363
36.1121,22423
36.1997,23716
36.2873,23081
36.3749,380657
36.4626,25688
36.5502,24368
36.6378,22780
36.7255,22144
36.8131,22800
36.9007,23031
36.9884,22900
37.076,22915
37.1636,23317
37.2512,22892
37.3389,1452848
37.4265,27372
37.5141,25147
37.6018,23244
37.6894,23075
37.777,22781
37.8647,23182
37.9523,23208
38.0399,23132
38.1275,22672
38.2152,22641
38.3028,24364
38.3904,75563
38.4781,25308
38.5657,24493
38.6533,23445
38.741,23423
38.8286,22727
38.9162,23007
39.0039,22750
39.0915,22830
39.1791,22677
39.2668,22832
39.3544,2049401
39.442,26624
39.5296,24433
39.6173,23095
39.7049,23329
39.7925,23771
39.8802,23469
39.9678,22720
40.0554,22431
40.1431,23178
40.2307,23351
40.3183,38837
40.4059,38399
40.4936,24901
40.5812,24074
40.6688,22498
40.7565,22758
40.8441,22669
40.9317,23380
41.0194,23327
41.107,22890
41.1946,22835
41.2822,22573
41.3699,759932
41.4575,26236
41.5451,25142
41.6328,23109
41.7204,22826
41.808,22936
41.8957,23096
41.9833,22633
42.0709,23156
42.1586,23124
42.2462,22616
42.3338,868645
42.4214,30034
42.5091,25457
42.5967,23091
42.6843,22592
42.772,22646
42.8596,23277
42.9472,23468
43.0348,23190
43.1225,22814
43.2101,23505
43.2977,24892
43.3854,134564
43.473,25924
43.5606,25155
43.6483,22712
43.7359,23627
43.8235,23433
43.9111,22748
43.9988,23243
44.0864,22398
44.1741,23205
44.2617,22802
44.3493,2235343
44.4369,29128
44.5246,25029
44.6122,23264
44.6998,23322
44.7875,23253
44.8751,22615
44.9627,23371
45.0504,23053
45.138,22846
45.2256,23378
45.3132,25522
45.4009,46323
45.4885,26578
45.5761,24425
45.6638,23702
45.7514,23901
45.839,23155
45.9267,22957
46.0143,22301
46.1019,23129
46.1896,23172
46.2772,23588
46.3648,1292446
46.4524,27036
46.5401,25230
46.6277,23917
46.7153,23690
46.803,23215
46.8906,23375
46.9782,22852
47.0659,23324
47.1535,23466
47.2411,23728
47.3287,350080
47.4164,33311
47.504,25739
47.5916,24514
47.6793,23715
47.7669,22799
47.8545,23169
47.9422,23915
48.0298,23501
48.1174,23412
48.205,23669
48.2927,24415
48.3803,254556
48.4679,26123
48.5556,24705
48.6432,23213
48.7308,24096
48.8185,23429
48.9061,23047
48.9937,23490
49.0814,23671
49.169,23107
49.2566,23258
49.3442,2172308
49.4319,27628
49.5195,25016
49.6071,23409
49.6947,23737
49.7824,23319
49.87,23747
49.9577,24288
50.0453,23146
50.1329,23123
50.2205,23603
50.3082,24459
50.3958,53107
50.4834,25386
50.5711,25769
50.6587,23919
50.7463,23114
50.834,24363
50.9216,23516
51.0092,23166
51.0969,23602
51.1845,23165
51.2721,23479
51.3597,1866101
51.4474,27274
51.535,25260
51.6226,23946
51.7103,23741
51.7979,23862
51.8855,23976
51.9732,23655
52.0608,23664
52.1484,23819
52.236,24164
52.3237,114192
52.4113,33783
52.4989,25677
52.5866,24876
52.6742,23475
52.7618,24293
52.8495,24054
52.9371,23830
53.0247,23588
53.1123,23263
53.2,23191
53.2876,24042
53.3752,481185
53.4629,25697
53.5505,25727
53.6381,24247
53.7258,23835
53.8134,23844
53.901,24191
53.9887,24019
54.0763,23325
54.1639,23821
54.2515,23636
54.3392,1704472
54.4268,27311
54.5144,26489
54.6021,23531
54.6897,23585
54.7773,23801
54.865,23866
54.9526,24128
55.0402,23805
55.1278,23359
55.2155,24332
55.3031,25137
55.3907,78174
55.4784,26491
55.566,25431
55.6536,24340
55.7413,23867
55.8289,24180
55.9165,23395
56.0042,23503
56.0918,23940
56.1794,23568
56.267,24280
56.3547,2306106
56.4423,26322
56.5299,25280
56.6176,24406
56.7052,24857
56.7928,24497
56.8805,24203
56.9681,23431
57.0557,24139
57.1433,23949
57.231,23811
57.3186,42630
57.4062,33725
57.4939,25536
57.5815,25440
57.6691,24476
57.7568,24571
57.8444,23455
57.932,24317
58.0197,23857
58.1073,24353
58.1949,23979
58.2825,24335
58.3702,885471
58.4578,26765
58.5454,25874
58.6331,23948
58.7207,24220
58.8083,24109
58.896,23923
58.9836,24727
59.0712,23846
59.1588,24396
59.2465,23744
59.3341,994566
59.4217,26704
59.5094,26563
59.597,24850
59.6846,24358
59.7723,23699
59.8599,24194
59.9475,24034
60.0352,23851
60.1228,24141
60.2104,24007
60.298,25064
60.3857,135914
60.4733,26637
60.5609,25375
60.6486,24024
60.7362,23676
60.8238,24241
60.9115,23939
60.9991,24141
61.0867,23818
61.1743,23463
61.262,24235
61.3496,2490592
61.4372,25850
61.5249,25649
61.6125,23530
61.7001,24006
61.7878,23571
61.8754,24009
61.963,23821
62.0506,23431
62.1383,24589
62.2259,24192
62.3135,26694
62.4012,38250
62.4888,26251
62.5764,25658
62.6641,24390
62.7517,24066
62.8393,23689
62.927,24254
63.0146,24360
63.1022,23709
63.1898,24180
63.2775,23631
63.3651,1426632
63.4527,26231
63.5404,25402
63.628,24499
63.7156,24505
63.8033,24252
63.8909,24386
63.9785,24635
64.0661,23953
64.1538,24630
64.2414,24491
64.329,381493
64.4167,27714
64.5043,25972
64.5919,24406
64.6796,23951
64.7672,24336
64.8548,23950
64.9424,23739
65.0301,23365
65.1177,24249
65.2053,23740
65.293,24881
65.3806,259074
65.4682,26010
65.5559,26352
65.6435,24526
65.7311,24945
65.8187,24371
65.9064,23955
65.994,23838
66.0816,24005
66.1693,24272
66.2569,23858
66.3445,2323251
66.4322,27337
66.5198,25689
66.6074,24206
66.695,24434
66.7827,24801
66.8703,24069
66.9579,23733
67.0456,24068
67.1332,24298
67.2208,23972
67.3085,24860
67.3961,51810
67.4837,26009
67.5713,25275
67.659,24033
67.7466,24379
67.8342,24391
67.9219,23789
68.0095,24637
68.0971,23786
68.1848,24130
68.2724,24474
68.36,2041224
68.4476,26138
68.5353,25684
68.6229,23957
68.7105,23877
68.7982,24798
68.8858,23786
68.9734,24294
69.0611,24232
69.1487,23261
69.2363,23949
69.324,122382
69.4116,29234
69.4992,25599
69.5868,24210
69.6745,23408
69.7621,24310
69.8498,23934
69.9374,24053
70.025,23933
70.1126,24054
70.2003,23970
70.2879,24235
70.3755,527329
70.4631,26156
70.5508,26056
70.6384,24941
70.7261,24081
70.8137,24233
70.9013,23833
70.9889,23913
71.0766,24486
71.1642,23919
71.2518,24280
71.3395,1855549
71.4271,27036
71.5147,25784
71.6024,23912
71.69,25415
71.7776,23926
71.8653,23436
71.9529,23683
72.0405,23720
72.1281,24544
72.2158,23244
72.3034,25972
72.391,84220
72.4787,25931
72.5663,25832
72.6539,24317
72.7416,24148
72.8292,23589
72.9168,24241
73.0044,24322
73.0921,24637
73.1797,23904
73.2673,24198
73.355,2552423
73.4426,26051
73.5302,26104
73.6179,24498
73.7055,24157
73.7931,24372
73.8807,24459
73.9684,23418
74.056,23536
74.1436,23926
74.2313,24046
74.3189,43509
74.4065,33014
74.4942,25470
74.5818,25071
74.6694,24322
74.7571,24124
74.8447,24580
74.9323,24129
75.0199,23857
75.1076,23996
75.1952,23978
75.2828,24269
75.3705,1024474
75.4581,26238
75.5457,25899
75.6334,24336
75.721,23693
75.8086,24531
75.8962,24293
75.9839,24181
76.0715,23378
76.1591,24592
76.2468,23725
76.3344,1091470
76.422,26223
76.5097,25621
76.5973,24715
76.6849,24149
76.7726,23842
76.8602,23926
76.9478,24392
77.0354,23845
77.1231,23872
77.2107,23719
77.2983,25987
77.386,152501
77.4736,25583
77.5612,26466
77.6489,24070
77.7365,24439
77.8241,23868
77.9117,23681
77.9994,24692
78.087,23910
78.1746,24600
78.2623,24750
78.3499,2709860
78.4375,25838
78.5252,25590
78.6128,24418
78.7004,23767
78.788,23849
78.8757,24625
78.9633,24512
79.0509,24302
79.1386,23848
79.2262,24212
79.3138,26929
79.4014,40071
79.4891,25417
79.5767,25128
79.6643,24673
79.752,23993
79.8396,23944
79.9272,24085
80.0149,24054
80.1025,23161
80.1901,24190
80.2778,24418
80.3654,1695554
80.453,26290
80.5406,26002
80.6283,24360
80.7159,24351
80.8035,25172
80.8912,24056
80.9788,24104
81.0664,23742
81.1541,25080
81.2417,24907
81.3293,459367
81.417,29017
81.5046,25611
81.5922,24425
81.6799,24206
81.7675,24602
81.8551,24251
81.9427,23931
82.0304,24570
82.118,23933
82.2056,24544
82.2933,24725
82.3809,318855
82.4685,25842
82.5562,25993
82.6438,24479
82.7314,24577
82.819,23596
82.9067,24162
82.9943,23770
83.0819,24242
83.1696,25186
83.2572,24549
83.3448,2659706
83.4325,27158
83.5201,25557
83.6077,24227
83.6954,23545
83.783,24704
83.8706,24100
83.9582,23434
84.0459,24577
84.1335,24094
84.2211,24879
84.3088,26079
84.3964,57904
84.484,26259
84.5717,25309
84.6593,24050
84.7469,24122
84.8345,24736
84.9222,23846
85.0098,24487
85.0974,24426
85.1851,24295
85.2727,24342
85.3603,2417599
85.448,26077
85.5356,25512
85.6232,23304
85.7109,24099
85.7985,24122
85.8861,23695
85.9737,23946
86.0614,24655
86.149,24469
86.2366,23989
86.3243,145429
86.4119,29974
86.4995,26120
86.5872,24475
86.6748,24106
86.7624,23493
86.85,24627
86.9377,22823
87.0253,24058
87.1129,23620
87.2006,23596
87.2882,24081
87.3758,681248
87.4635,25629
87.5511,25686
87.6387,24893
87.7263,24611
87.814,24002
87.9016,24499
87.9892,24186
88.0769,24186
88.1645,24361
88.2521,23818
88.3398,2165793
88.4274,27377
88.515,25402
88.6027,23753
88.6903,24059
88.7779,23754
88.8655,23445
88.9532,23992
89.0408,24091
89.1284,23808
89.2161,23914
89.3037,25644
89.3913,102249
89.4789,25404
89.5666,25004
89.6542,23974
89.7418,24490
89.8295,23568
89.9171,24691
90.0047,24302
90.0924,24326
90.18,23749
90.2676,23732
90.3552,2956292
90.4429,25564
90.5305,25258
90.6182,24318
90.7058,24191
90.7934,23927
90.881,23815
90.9687,24150
91.0563,24900
91.1439,23619
91.2315,24142
91.3192,46749
91.4068,33061
91.4945,25307
91.5821,24419
91.6697,24235
91.7573,24271
91.845,23398
91.9326,24334
92.0202,23738
92.1079,24015
92.1955,24176
92.2831,24189
92.3708,1328555
92.4584,25724
92.546,25118
92.6337,23982
92.7213,24406
92.8089,23715
92.8965,24054
92.9842,23607
93.0718,24348
93.1594,23445
93.2471,23088
93.3347,1303913
93.4223,26750
93.51,25222
93.5976,24848
93.6852,24264
93.7728,24432
93.8605,24185
93.9481,24232
94.0357,24485
94.1234,23070
94.211,24352
94.2986,25161
94.3863,192237
94.4739,25768
94.5615,25370
94.6491,23937
94.7368,23682
94.8244,24390
94.912,24567
94.9997,23523
95.0873,24410
95.1749,23994
95.2626,24096
95.3502,3144731
95.4378,25763
95.5255,25530
95.6131,23407
95.7007,23267
95.7883,22921
95.876,24097
95.9636,24175
96.0512,23805
96.1389,24004
96.2265,23136
96.3141,26526
96.4018,43926
96.4894,25484
96.577,24872
96.6646,23692
96.7523,24560
96.8399,24210
96.9275,23843
97.0152,24491
97.1028,24214
97.1904,24296
97.2781,23880
97.3657,2085485
97.4533,25572
97.541,25692
97.6286,24044
97.7162,23506
97.8038,23172
97.8915,23730
97.9791,24415
98.0667,23914
98.1544,23800
98.242,23802
98.3296,502139
98.4173,27810
98.5049,25159
98.5925,24400
98.6801,24050
98.7678,24358
98.8554,23887
98.943,24138
99.0307,23478
99.1183,24031
99.2059,23312
99.2936,24582
99.3812,398533
99.4688,26057
99.5564,25668
99.6441,23923
99.7317,23747
99.8193,24417
99.907,23240
99.9946,23634
100.082,24125
100.17,23578
100.257,23605
100.345,2941686
100.433,26147
100.52,25465
100.608,23949
100.696,23583
100.783,23239
100.871,24215
100.959,23733
101.046,23408
101.134,23478
101.221,23613
101.309,24714
101.397,64922
101.484,25363
101.572,25481
101.66,23165
101.747,23276
101.835,24480
101.922,23776
102.01,24254
102.098,23757
102.185,23388
102.273,24149
102.361,23815
102.448,23613
102.536,24832
102.624,23720
102.711,23817
102.799,24068
102.886,23304
102.974,24312
103.062,23533
103.149,24577
103.237,24267
103.325,23985
103.412,24433
103.5,24315
103.587,23987
103.675,24442
103.763,24235
103.85,24465
103.938,23653
104.026,23951
104.113,24414
104.201,23786
104.288,24607
104.376,23278
104.464,24426
104.551,24402
104.639,24089
104.727,24593
104.814,24467
104.902,24390
104.99,23865
105.077,24482
105.165,23992
105.252,24425
105.34,23935
105.428,24075
105.515,23970
105.603,24773
105.691,24744
105.778,24281
105.866,24610
105.953,24580
106.041,24074
106.129,23713
106.216,24759
106.304,24462
106.392,24316
106.479,24117
106.567,23788
106.655,24218
106.742,24812
106.83,24631
106.917,24642
107.005,24118
107.093,24568
107.18,24718
107.268,24450
107.356,24862
107.443,24956
107.531,24233
107.618,24398
107.706,24506
107.794,24814
107.881,24784
107.969,24576
108.057,25180
108.144,24315
108.232,24970
108.319,24558
108.407,24539
108.495,24560
108.582,25218
108.67,25076
108.758,24022
108.845,24522
108.933,23913
109.021,24518
109.108,24581
109.196,25228
109.283,24444
109.371,24431
109.459,24682
109.546,24101
109.634,25090
109.722,24156
109.809,24438
109.897,25458
109.984,24782
110.072,24744
110.16,24312
110.247,25037
110.335,24914
110.423,24633
110.51,25196
110.598,24786
110.686,25154
110.773,24743
110.861,25005
110.948,24643
111.036,25104
111.124,25124
111.211,24758
111.299,25142
111.387,25100
111.474,25203
111.562,24461
111.649,24863
111.737,25568
111.825,24057
111.912,24806
112,24898
112.088,24456
112.175,24918
112.263,24766
112.35,24594
112.438,25023
112.526,24564
112.613,25555
112.701,24648
112.789,25123
112.876,24415
112.964,25169
113.052,25429
113.139,25292
113.227,24775
113.314,24827
113.402,25094
113.49,25687
113.577,24851
113.665,25535
113.753,24744
113.84,25579
113.928,25440
114.015,25550
114.103,25006
114.191,24545
114.278,24538
114.366,24451
114.454,24836
114.541,24930
114.629,25006
114.717,24941
114.804,24383
114.892,25364
114.979,24328
115.067,25040
115.155,25609
115.242,25312
115.33,25660
115.418,25423
115.505,25291
115.593,24858
115.68,24956
115.768,24855
115.856,25421
115.943,24427
116.031,24903
116.119,25814
116.206,25983
116.294,26026
116.381,25234
116.469,24470
116.557,25648
116.644,25557
116.732,25379
116.82,24742
116.907,24939
116.995,24308
117.083,25853
117.17,25809
117.258,25206
117.345,25902
117.433,24944
117.521,25158
117.608,26014
117.696,25080
117.784,25691
117.871,25268
117.959,25189
118.046,24816
118.134,25827
118.222,25764
118.309,25678
118.397,25179
118.485,25383
118.572,26258
118.66,26100
118.748,24994
118.835,25223
118.923,25915
119.01,25155
119.098,26459
119.186,26168
119.273,24901
119.361,25306
119.449,25383
119.536,25407
119.624,24806
119.711,25663
119.799,26020
119.887,26026
119.974,26201
120.062,25654
120.15,25466
120.237,25800
120.325,25041
120.412,25527
120.5,25885
120.588,25167
120.675,25339
120.763,25354
120.851,25129
120.938,25357
121.026,25040
121.114,25390
121.201,26323
121.289,25512
121.376,25379
121.464,26405
121.552,26270
121.639,25921
121.727,26006
121.815,26133
121.902,24778
121.99,25829
122.077,25548
122.165,26336
122.253,25692
122.34,25757
122.428,25668
122.516,25874
122.603,25100
122.691,25904
122.778,25132
122.866,25658
122.954,24747
123.041,25650
123.129,26087
123.217,25891
123.304,25563
123.392,26324
123.48,25636
123.567,25651
123.655,25914
123.742,26623
123.83,25890
123.918,26127
124.005,26521
124.093,25996
124.181,26044
124.268,26769
124.356,26081
124.443,25070
124.531,26239
124.619,25896
124.706,25256
124.794,25470
124.882,25398
124.969,26096
124.996,26096