File: XRD/DWTR_IL/IDB data/IL_1.csv
twotheta, intensity, esd
5.0, 327.989, 17.9173
5.031, 317.515, 17.6373
5.062, 311.198, 17.4762
5.093, 303.906, 17.2584
5.124, 325.349, 17.8265
5.155, 309.947, 17.406
5.186, 321.209, 17.7333
5.217, 299.821, 17.1094
5.248, 298.461, 17.0876
5.279, 288.425, 16.7906
5.31, 328.339, 17.9365
5.341, 277.431, 16.4605
5.372, 282.356, 16.6071
5.403, 266.466, 16.155
5.434, 257.124, 15.8532
5.465, 273.657, 16.3521
5.496, 258.3, 15.8954
5.527, 249.133, 15.6303
5.558, 237.518, 15.2666
5.589, 239.489, 15.3616
5.62, 240.694, 15.3444
5.651, 248.432, 15.5863
5.682, 255.294, 15.8005
5.713, 224.431, 14.7971
5.744, 252.756, 15.7037
5.775, 236.852, 15.2239
5.806, 219.327, 14.6204
5.837, 226.074, 14.8731
5.868, 238.636, 15.2755
5.899, 195.778, 13.8424
5.93, 213.977, 14.491
5.961, 190.906, 13.6699
5.992, 206.999, 14.2491
6.023, 198.659, 13.9419
6.054, 201.797, 14.0586
6.085, 228.314, 14.9558
6.116, 212.474, 14.3892
6.147, 197.332, 13.883
6.178, 215.307, 14.5146
6.209, 201.075, 14.0083
6.24, 213.549, 14.4289
6.271, 286.125, 16.7135
6.302, 219.469, 14.6299
6.333, 194.084, 13.7571
6.364, 222.674, 14.7455
6.395, 189.658, 13.6155
6.426, 207.422, 14.2445
6.457, 215.88, 14.5533
6.488, 204.347, 14.1337
6.519, 202.132, 14.0479
6.55, 210.587, 14.3606
6.581, 203.879, 14.1352
6.612, 174.072, 13.0462
6.643, 203.254, 14.0919
6.674, 198.072, 13.9351
6.705, 209.69, 14.2994
6.736, 166.119, 12.7398
6.767, 184.666, 13.4313
6.798, 205.878, 14.172
6.829, 229.804, 14.9893
6.86, 228.853, 14.9591
6.891, 224.913, 14.8288
6.922, 234.033, 15.1368
6.953, 239.525, 15.3011
6.984, 209.825, 14.3086
7.015, 183.495, 13.3817
7.046, 196.621, 13.8673
7.077, 200.958, 14.0002
7.108, 209.758, 14.3041
7.139, 212.997, 14.4246
7.17, 201.436, 14.0334
7.201, 223.487, 14.767
7.232, 203.301, 14.0951
7.263, 217.552, 14.5997
7.294, 190.759, 13.6594
7.325, 195.72, 13.8383
7.356, 188.365, 13.593
7.387, 234.172, 15.1142
7.418, 218.734, 14.6461
7.449, 228.94, 14.9648
7.48, 207.915, 14.2448
7.511, 223.627, 14.7762
7.542, 201.28, 14.0226
7.573, 212.534, 14.3933
7.604, 205.87, 14.1714
7.635, 210.785, 14.3408
7.666, 187.755, 13.5137
7.697, 195.21, 13.8022
7.728, 191.254, 13.6599
7.759, 224.615, 14.8092
7.79, 236.831, 15.2225
7.821, 191.891, 13.7054
7.852, 217.137, 14.5719
7.883, 215.875, 14.5199
7.914, 204.307, 14.1309
7.945, 202.338, 14.0622
7.976, 241.618, 15.3411
8.007, 247.019, 15.5283
8.038, 218.99, 14.6305
8.069, 257.955, 15.8443
8.1, 219.577, 14.637
8.131, 227.855, 14.9258
8.162, 265.966, 16.1246
8.193, 242.316, 15.3855
8.224, 244.94, 15.4897
8.255, 229.815, 14.9582
8.286, 268.541, 16.1917
8.317, 246.4, 15.52
8.348, 226.984, 14.8687
8.379, 235.739, 15.1837
8.41, 235.427, 15.1636
8.441, 226.777, 14.8872
8.472, 234.994, 15.1357
8.503, 258.54, 15.8802
8.534, 296.723, 17.016
8.565, 271.133, 16.2595
8.596, 273.499, 16.3427
8.627, 250.09, 15.6289
8.658, 247.935, 15.5551
8.689, 267.62, 16.1656
8.72, 244.394, 15.4552
8.751, 269.106, 16.1964
8.782, 283.65, 16.6544
8.813, 242.302, 15.3845
8.844, 253.963, 15.7181
8.875, 272.688, 16.2943
8.906, 294.189, 16.9546
8.937, 291.773, 16.8434
8.968, 245.561, 15.4672
8.999, 273.196, 16.3246
9.03, 297.473, 17.031
9.061, 327.84, 17.9092
9.092, 283.701, 16.6574
9.123, 299.141, 17.0985
9.154, 327.21, 17.8748
9.185, 326.246, 17.8488
9.216, 318.147, 17.6452
9.247, 301.329, 17.1397
9.278, 298.894, 17.0844
9.309, 286.663, 16.7449
9.34, 286.581, 16.7401
9.371, 292.931, 16.9102
9.402, 282.744, 16.6299
9.433, 283.513, 16.6464
9.464, 321.822, 17.7132
9.495, 331.298, 17.991
9.526, 314.728, 17.5366
9.557, 348.451, 18.4651
9.588, 464.392, 21.3259
9.619, 312.988, 17.4669
9.65, 302.734, 17.1919
9.681, 330.35, 17.966
9.712, 350.057, 18.5762
9.743, 332.255, 17.99
9.774, 298.305, 17.0507
9.805, 328.142, 17.899
9.836, 322.202, 17.7073
9.867, 345.391, 18.3545
9.898, 360.12, 18.7951
9.929, 316.307, 17.5702
9.96, 340.025, 18.1984
9.991, 307.694, 17.3343
10.022, 325.158, 17.816
10.053, 331.901, 18.0237
10.084, 297.71, 17.0726
10.115, 328.861, 17.9116
10.146, 376.699, 19.1703
10.177, 325.239, 17.8204
10.208, 356.302, 18.6213
10.239, 320.742, 17.6806
10.27, 331.122, 17.9815
10.301, 327.523, 17.8652
10.332, 380.018, 19.2397
10.363, 329.926, 17.943
10.394, 360.304, 18.7537
10.425, 332.909, 17.999
10.456, 354.193, 18.5874
10.487, 380.57, 19.2677
10.518, 385.14, 19.3998
10.549, 452.383, 21.0198
10.58, 1792.56, 41.8818
10.611, 4110.7, 63.3069
10.642, 530.018, 22.7399
10.673, 425.203, 20.3831
10.704, 365.359, 18.864
10.735, 389.239, 19.483
10.766, 332.432, 18.026
10.797, 503.159, 22.124
10.828, 371.018, 19.0297
10.859, 332.115, 18.0088
10.89, 388.487, 19.4453
10.921, 321.882, 17.7165
10.952, 352.082, 18.5534
10.983, 343.943, 18.3294
11.014, 331.911, 18.0243
11.045, 329.012, 17.9464
11.076, 333.033, 18.0586
11.107, 353.9, 18.572
11.138, 359.553, 18.74
11.169, 297.318, 17.0501
11.2, 312.312, 17.4564
11.231, 314.4, 17.5184
11.262, 332.568, 18.0069
11.293, 308.915, 17.348
11.324, 318.563, 17.6141
11.355, 365.932, 18.8936
11.386, 345.131, 18.3149
11.417, 362.14, 18.7731
11.448, 357.287, 18.6728
11.479, 351.279, 18.5112
11.51, 353.537, 18.5786
11.541, 349.698, 18.4793
11.572, 340.046, 18.1995
11.603, 318.392, 17.6046
11.634, 351.796, 18.5384
11.665, 304.016, 17.1817
11.696, 318.101, 17.6155
11.727, 310.426, 17.4055
11.758, 366.645, 18.9052
11.789, 321.675, 17.7051
11.82, 336.513, 18.1146
11.851, 357.574, 18.6877
11.882, 328.226, 17.877
11.913, 336.917, 18.1101
11.944, 339.34, 18.1878
11.975, 310.877, 17.4307
12.006, 313.923, 17.4918
12.037, 293.394, 16.9369
12.068, 312.605, 17.4455
12.099, 350.498, 18.4957
12.13, 345.789, 18.3498
12.161, 406.246, 19.8665
12.192, 771.177, 27.4105
12.223, 533.995, 22.8266
12.254, 348.344, 18.3821
12.285, 352.86, 18.5175
12.316, 330.584, 17.9523
12.347, 313.639, 17.476
12.378, 336.23, 18.0993
12.409, 345.14, 18.3671
12.44, 330.305, 17.9636
12.471, 357.194, 18.6424
12.502, 337.5, 18.1152
12.533, 360.928, 18.7608
12.564, 371.644, 19.0118
12.595, 374.28, 19.0719
12.626, 371.092, 19.0335
12.657, 377.286, 19.1506
12.688, 329.322, 17.8574
12.719, 330.973, 17.9206
12.75, 321.732, 17.6019
12.781, 362.961, 18.6904
12.812, 332.822, 17.89
12.843, 322.761, 17.6055
12.874, 334.915, 17.9249
12.905, 333.907, 17.8966
12.936, 310.389, 17.1884
12.967, 341.371, 18.0645
12.998, 348.93, 18.286
13.029, 341.623, 18.0526
13.06, 368.366, 18.795
13.091, 348.17, 18.2462
13.122, 345.123, 18.1867
13.153, 373.467, 18.8839
13.184, 359.178, 18.5697
13.215, 348.118, 18.2686
13.246, 381.541, 19.1457
13.277, 382.693, 19.1794
13.308, 430.251, 20.3462
13.339, 464.066, 21.0895
13.37, 571.232, 23.4122
13.401, 911.689, 29.5826
13.432, 2992.13, 53.4955
13.463, 117497, 335.432
13.494, 25443.2, 156.073
13.525, 1831.27, 41.8237
13.556, 826.942, 28.1064
13.587, 548.964, 22.9477
13.618, 497.598, 21.8162
13.649, 415.486, 19.9864
13.68, 411.191, 19.8488
13.711, 423.405, 20.1355
13.742, 392.099, 19.3609
13.773, 358.376, 18.5034
13.804, 365.715, 18.6597
13.835, 382.971, 19.1213
13.866, 341.458, 18.0438
13.897, 359.63, 18.5682
13.928, 331.451, 17.765
13.959, 321.907, 17.5069
13.99, 330.754, 17.7788
14.021, 316.671, 17.351
14.052, 286.209, 16.4947
14.083, 354.691, 18.3869
14.114, 329.689, 17.7215
14.145, 425.997, 20.1903
14.176, 305.557, 17.1056
14.207, 323.256, 17.5803
14.238, 295.753, 16.8498
14.269, 291.849, 16.7641
14.3, 311.435, 17.3263
14.331, 331.654, 17.905
14.362, 492.067, 21.8272
14.393, 2312.02, 47.2537
14.424, 423.715, 20.2652
14.455, 351.374, 18.4649
14.486, 318.956, 17.5554
14.517, 296.331, 16.9656
14.548, 302.868, 17.1442
14.579, 313.028, 17.4691
14.61, 276.826, 16.3957
14.641, 288.775, 16.7543
14.672, 279.633, 16.5042
14.703, 272.198, 16.2941
14.734, 298.622, 17.041
14.765, 287.148, 16.7163
14.796, 294.18, 16.898
14.827, 271.247, 16.2372
14.858, 266.634, 16.106
14.889, 242.793, 15.3539
14.92, 274.067, 16.3185
14.951, 292.84, 16.8768
14.982, 279.439, 16.4927
15.013, 242.595, 15.3722
15.044, 269.95, 16.2178
15.075, 268.297, 16.1477
15.106, 287.74, 16.7224
15.137, 255.484, 15.7821
15.168, 286.854, 16.6992
15.199, 299.591, 17.0685
15.23, 266.94, 16.1245
15.261, 279.382, 16.4607
15.292, 305.861, 17.231
15.323, 307.528, 17.2975
15.354, 257.651, 15.8555
15.385, 302.285, 17.1663
15.416, 281.939, 16.5826
15.447, 313.426, 17.4913
15.478, 303.418, 17.1753
15.509, 269.257, 16.2054
15.54, 305.577, 17.2699
15.571, 317.909, 17.5779
15.602, 362.946, 18.7896
15.633, 308.185, 17.3344
15.664, 343.909, 18.2757
15.695, 303.44, 17.1766
15.726, 301.032, 17.1228
15.757, 304.02, 17.1819
15.788, 312.85, 17.4592
15.819, 298.636, 17.0418
15.85, 311.793, 17.4273
15.881, 312.101, 17.4446
15.912, 327.066, 17.8669
15.943, 325.496, 17.7812
15.974, 297.687, 17.0154
16.005, 305.838, 17.2571
16.036, 287.696, 16.7482
16.067, 300.524, 17.0939
16.098, 326.382, 17.8296
16.129, 281.75, 16.5715
16.16, 312.058, 17.415
16.191, 287.843, 16.7284
16.222, 321.067, 17.6985
16.253, 290.121, 16.8324
16.284, 342.34, 18.244
16.315, 318.239, 17.6231
16.346, 422.905, 20.2963
16.377, 1211.92, 34.3838
16.408, 15226.1, 122.046
16.439, 1079.45, 32.4426
16.47, 420.556, 20.2537
16.501, 321.494, 17.722
16.532, 348.09, 18.3686
16.563, 315.114, 17.5039
16.594, 297.149, 17.0404
16.625, 350.501, 18.4446
16.656, 304.609, 17.2428
16.687, 274.777, 16.3607
16.718, 277.154, 16.4152
16.749, 282.605, 16.5931
16.78, 276.484, 16.4043
16.811, 258.686, 15.8891
16.842, 281.811, 16.6038
16.873, 272.397, 16.306
16.904, 281.496, 16.5853
16.935, 265.091, 16.0716
16.966, 296.542, 16.9777
16.997, 287.347, 16.7563
17.028, 303.217, 17.1915
17.059, 309.582, 17.3855
17.09, 253.052, 15.7222
17.121, 293.119, 16.8929
17.152, 282.349, 16.578
17.183, 324.004, 17.7795
17.214, 341.164, 18.2332
17.245, 436.206, 20.6279
17.276, 666.437, 25.493
17.307, 1474.87, 37.9047
17.338, 1481.11, 37.9523
17.369, 630.849, 24.8135
17.4, 425.228, 20.3843
17.431, 342.966, 18.3034
17.462, 317.899, 17.6314
17.493, 324.776, 17.9302
17.524, 286.867, 16.6999
17.555, 267.987, 16.1583
17.586, 267.984, 16.1876
17.617, 260.233, 15.9241
17.648, 297.938, 17.0297
17.679, 270.944, 16.2775
17.71, 255.66, 15.7629
17.741, 260.07, 15.9142
17.772, 309.193, 17.3637
17.803, 308.105, 17.3299
17.834, 369.97, 18.976
17.865, 541.509, 22.9803
17.896, 2303.54, 47.3292
17.927, 23811.6, 152.258
17.958, 2080.53, 45.0174
17.989, 571.992, 23.6228
18.02, 367.272, 18.9376
18.051, 319.364, 17.6584
18.082, 281.267, 16.543
18.113, 326.26, 17.8229
18.144, 270.071, 16.2251
18.175, 253.953, 15.7175
18.206, 230.716, 14.9851
18.237, 278.483, 16.465
18.268, 256.741, 15.8295
18.299, 258.778, 15.8649
18.33, 268.717, 16.1729
18.361, 278.076, 16.4698
18.392, 237.331, 15.192
18.423, 236.941, 15.1982
18.454, 248.301, 15.5781
18.485, 256.96, 15.813
18.516, 252.48, 15.6866
18.547, 255.163, 15.7622
18.578, 252.228, 15.7013
18.609, 275.715, 16.4166
18.64, 249.064, 15.5953
18.671, 274.848, 16.365
18.702, 282.336, 16.6059
18.733, 249.043, 15.594
18.764, 249.12, 15.5683
18.795, 248.962, 15.5889
18.826, 291.94, 16.8811
18.857, 278.077, 16.441
18.888, 278.756, 16.4811
18.919, 276.284, 16.4213
18.95, 241.673, 15.3446
18.981, 280.224, 16.5103
19.012, 241.751, 15.3496
19.043, 241.942, 15.3617
19.074, 262.699, 16.045
19.105, 262.371, 15.9952
19.136, 262.073, 16.0368
19.167, 253.265, 15.675
19.198, 272.547, 16.315
19.229, 329.136, 17.9532
19.26, 249.005, 15.5611
19.291, 244.519, 15.4631
19.322, 254.887, 15.7452
19.353, 252.52, 15.6891
19.384, 261.405, 15.966
19.415, 274.583, 16.3492
19.446, 282.469, 16.5851
19.477, 352.352, 18.5677
19.508, 479.461, 21.5892
19.539, 2452.79, 48.8368
19.57, 17360.6, 129.901
19.601, 1456.27, 37.6899
19.632, 416.654, 20.136
19.663, 319.234, 17.6512
19.694, 295.87, 16.995
19.725, 367.158, 18.9317
19.756, 311.46, 17.436
19.787, 293.057, 16.9175
19.818, 279.887, 16.548
19.849, 309.391, 17.3474
19.88, 330.608, 17.9536
19.911, 321.122, 17.7015
19.942, 351.529, 18.5243
19.973, 439.718, 20.7015
20.004, 573.056, 23.6466
20.035, 604.238, 24.2603
20.066, 432.751, 20.5335
20.097, 361.966, 18.7893
20.128, 321.207, 17.6793
20.159, 273.492, 16.3132
20.19, 257.06, 15.8191
20.221, 289.624, 16.8036
20.252, 233.683, 15.1141
20.283, 261.914, 15.9971
20.314, 253.683, 15.7008
20.345, 264.89, 16.089
20.376, 269.718, 16.2332
20.407, 254.604, 15.7277
20.438, 270.385, 16.2439
20.469, 274.35, 16.3643
20.5, 273.187, 16.295
20.531, 240.949, 15.3296
20.562, 235.093, 15.1421
20.593, 246.238, 15.5099
20.624, 256.982, 15.8144
20.655, 273.814, 16.3324
20.686, 286.739, 16.7208
20.717, 257.59, 15.8518
20.748, 266.972, 16.1265
20.779, 279.087, 16.5007
20.81, 283.46, 16.6146
20.841, 237.164, 15.2125
20.872, 273.593, 16.3484
20.903, 249.606, 15.5987
20.934, 259.316, 15.8979
20.965, 272.394, 16.3058
20.996, 258.934, 15.8744
21.027, 258.747, 15.8929
21.058, 283.69, 16.6281
21.089, 271.697, 16.2641
21.12, 258.026, 15.8486
21.151, 278.74, 16.5091
21.182, 301.881, 17.1434
21.213, 349.573, 18.4469
21.244, 746.255, 26.972
21.275, 4291.71, 64.5697
21.306, 1493.02, 38.1072
21.337, 499.858, 22.0859
21.368, 483.053, 21.707
21.399, 900.06, 29.6462
21.43, 5277.2, 71.8133
21.461, 14517.3, 119.176
21.492, 2251.48, 46.849
21.523, 621.358, 24.6123
21.554, 390.279, 19.535
21.585, 354.96, 18.602
21.616, 318.552, 17.6135
21.647, 312.515, 17.4677
21.678, 289.905, 16.7916
21.709, 276.914, 16.4298
21.74, 333.336, 18.0221
21.771, 322.971, 17.7228
21.802, 506.954, 22.2264
21.833, 1165.73, 33.7046
21.864, 8922.31, 93.4327
21.895, 11376.2, 105.362
21.926, 1364.07, 36.5127
21.957, 543.305, 23.0151
21.988, 325.458, 17.8057
22.019, 272.607, 16.3186
22.05, 272.62, 16.2902
22.081, 243.243, 15.3824
22.112, 261.121, 15.9486
22.143, 265.981, 16.096
22.174, 249.301, 15.5796
22.205, 240.896, 15.3262
22.236, 255.673, 15.7637
22.267, 233.941, 15.0993
22.298, 227.299, 14.8575
22.329, 246.79, 15.5139
22.36, 224.865, 14.7936
22.391, 235.935, 15.1649
22.422, 218.129, 14.573
22.453, 216.651, 14.5392
22.484, 252.194, 15.6991
22.515, 243.988, 15.4295
22.546, 341.986, 18.2511
22.577, 233.396, 15.0641
22.608, 204.766, 14.1289
22.639, 221.937, 14.6967
22.67, 226.777, 14.8551
22.701, 229.39, 14.9622
22.732, 213.372, 14.417
22.763, 245.838, 15.4847
22.794, 228.901, 14.9304
22.825, 215.08, 14.4665
22.856, 212.692, 14.3384
22.887, 216.223, 14.478
22.918, 230.659, 14.9499
22.949, 211.139, 14.2661
22.98, 210.911, 14.2507
23.011, 191.776, 13.5594
23.042, 223.945, 14.6383
23.073, 206.525, 14.0836
23.104, 214.931, 14.3273
23.135, 228.91, 14.8054
23.166, 223.047, 14.6108
23.197, 202.631, 14.015
23.228, 208.252, 14.1033
23.259, 179.329, 13.1128
23.29, 197.263, 13.7427
23.321, 188.634, 13.4385
23.352, 181.972, 13.2005
23.383, 202.727, 13.955
23.414, 190.287, 13.4879
23.445, 177.536, 13.0516
23.476, 201.274, 13.888
23.507, 201.361, 13.894
23.538, 207.592, 14.1236
23.569, 212.1, 14.266
23.6, 216.402, 14.3934
23.631, 181.864, 13.1927
23.662, 185.865, 13.3432
23.693, 214.708, 14.3125
23.724, 201.49, 13.8699
23.755, 205.778, 14.0326
23.786, 196.441, 13.6855
23.817, 201.556, 13.8744
23.848, 187.222, 13.3719
23.879, 198.012, 13.7285
23.91, 205.572, 13.9861
23.941, 188.057, 13.3974
23.972, 199.443, 13.7616
24.003, 214.015, 14.2663
24.034, 197.891, 13.7531
24.065, 219.533, 14.5057
24.096, 210.679, 14.235
24.127, 198.947, 13.86
24.158, 202.498, 14.0058
24.189, 212.864, 14.35
24.22, 208.428, 14.2134
24.251, 204.32, 14.0982
24.282, 197.4, 13.8535
24.313, 226.968, 14.8677
24.344, 193.879, 13.7425
24.375, 207.071, 14.187
24.406, 193.635, 13.7253
24.437, 213.497, 14.4254
24.468, 194.535, 13.7545
24.499, 224.058, 14.7725
24.53, 218.527, 14.5995
24.561, 195.014, 13.7884
24.592, 204.225, 14.1252
24.623, 206.016, 14.1814
24.654, 195.476, 13.821
24.685, 203.38, 14.0668
24.716, 196.446, 13.855
24.747, 189.665, 13.581
24.778, 189.03, 13.5704
24.809, 192.65, 13.7246
24.84, 192.502, 13.6793
24.871, 214.671, 14.4718
24.902, 226.523, 14.8705
24.933, 172.394, 12.9569
24.964, 202.033, 14.041
24.995, 215.476, 14.4931
25.026, 201.221, 13.9846
25.057, 206.008, 14.1809
25.088, 213.088, 14.3978
25.119, 199.227, 13.9475
25.15, 226.004, 14.8685
25.181, 230.469, 15.0007
25.212, 264.622, 16.0727
25.243, 396.095, 19.6544
25.274, 1622.72, 39.7757
25.305, 1464.93, 37.7873
25.336, 420.1, 20.2317
25.367, 249.597, 15.5981
25.398, 233.236, 15.0852
25.429, 232.008, 15.0058
25.46, 229.633, 14.9463
25.491, 246.734, 15.5103
25.522, 269.297, 16.1786
25.553, 340.098, 18.1762
25.584, 551.908, 23.1723
25.615, 2875.46, 52.8741
25.646, 5611.4, 74.0049
25.677, 987.759, 31.0057
25.708, 410.934, 20.024
25.739, 277.781, 16.4812
25.77, 249.786, 15.6099
25.801, 228.972, 14.935
25.832, 243.921, 15.4252
25.863, 245.96, 15.4924
25.894, 344.406, 18.3021
25.925, 723.197, 26.5588
25.956, 367.112, 18.9293
25.987, 270.659, 16.202
26.018, 223.678, 14.7474
26.049, 227.599, 14.909
26.08, 195.826, 13.8113
26.111, 248.365, 15.5515
26.142, 223.32, 14.756
26.173, 238.583, 15.2409
26.204, 202.113, 14.0466
26.235, 240.269, 15.3174
26.266, 244.377, 15.4541
26.297, 239.65, 15.2779
26.328, 215.404, 14.4883
26.359, 220.377, 14.6578
26.39, 250.161, 15.6029
26.421, 224.27, 14.7864
26.452, 260.199, 15.9221
26.483, 243.094, 15.373
26.514, 283.265, 16.6032
26.545, 257.438, 15.8424
26.576, 240.873, 15.2938
26.607, 255.131, 15.7602
26.638, 315.781, 17.5409
26.669, 291.296, 16.8158
26.7, 293.195, 16.8973
26.731, 297.389, 17.0262
26.762, 268.897, 16.1838
26.793, 272.586, 16.3173
26.824, 286.009, 16.7067
26.855, 278.016, 16.4662
26.886, 315.574, 17.5566
26.917, 340.967, 18.2488
26.948, 676.763, 25.6634
26.979, 3188.01, 55.7398
27.01, 1872.88, 42.7741
27.041, 537.859, 22.9289
27.072, 364.484, 18.844
27.103, 739.778, 26.8611
27.134, 1425.39, 37.3063
27.165, 504.752, 22.1726
27.196, 358.087, 18.689
27.227, 376.949, 19.183
27.258, 781.998, 27.6038
27.289, 1408.84, 37.0903
27.32, 514.529, 22.4294
27.351, 306.729, 17.335
27.382, 275.886, 16.4267
27.413, 265.231, 16.1098
27.444, 212.077, 14.3954
27.475, 239.973, 15.2985
27.506, 232.075, 15.0733
27.537, 227.523, 14.904
27.568, 218.895, 14.6241
27.599, 226.393, 14.8619
27.63, 239.774, 15.2548
27.661, 189.63, 13.6135
27.692, 222.93, 14.7302
27.723, 210.174, 14.2992
27.754, 204.236, 14.126
27.785, 201.917, 14.0329
27.816, 236.504, 15.2015
27.847, 222.376, 14.7258
27.878, 246.862, 15.5492
27.909, 295.46, 16.9715
27.94, 703.779, 26.1838
27.971, 1186.73, 34.0983
28.002, 438.688, 20.699
28.033, 264.524, 16.0668
28.064, 223.856, 14.7913
28.095, 201.028, 14.005
28.126, 225.561, 14.8394
28.157, 212.209, 14.4043
28.188, 207.493, 14.2494
28.219, 202.052, 14.0423
28.25, 224.934, 14.8302
28.281, 225.635, 14.8442
28.312, 272.315, 16.3011
28.343, 223.094, 14.741
28.374, 250.014, 15.6242
28.405, 276.933, 16.4021
28.436, 354.987, 18.6034
28.467, 594.428, 24.1009
28.498, 395.967, 19.6481
28.529, 367.079, 18.9528
28.56, 539.814, 23.0123
28.591, 2098.96, 45.2569
28.622, 3423.21, 57.8417
28.653, 747.108, 27.0205
28.684, 356.06, 18.6341
28.715, 281.847, 16.5771
28.746, 256.245, 15.8291
28.777, 218.011, 14.5977
28.808, 215.413, 14.4888
28.839, 236.227, 15.1836
28.87, 228.04, 14.9059
28.901, 245.839, 15.4847
28.932, 294.728, 16.9575
28.963, 516.071, 22.454
28.994, 1695.12, 40.7124
29.025, 1077.08, 32.4451
29.056, 440.369, 20.7092
29.087, 271.988, 16.2815
29.118, 269.235, 16.2041
29.149, 208.823, 14.2736
29.18, 202.584, 14.0454
29.211, 196.265, 13.8422
29.242, 182.78, 13.3651
29.273, 197.912, 13.8895
29.304, 210.539, 14.324
29.335, 216.664, 14.5401
29.366, 162.554, 12.5779
29.397, 184.304, 13.405
29.428, 197.438, 13.8904
29.459, 183.322, 13.3691
29.49, 207.633, 14.2255
29.521, 205.241, 14.1617
29.552, 203.188, 14.0873
29.583, 178.671, 13.2067
29.614, 173.793, 13.0253
29.645, 186.378, 13.4847
29.676, 206.609, 14.1886
29.707, 164.895, 12.6833
29.738, 194.257, 13.7694
29.769, 191.624, 13.6863
29.8, 242.591, 15.3719
29.831, 180.867, 13.2607
29.862, 191.009, 13.6424
29.893, 196.39, 13.8511
29.924, 211.931, 14.3524
29.955, 292.384, 16.8786
29.986, 200.425, 13.9971
30.017, 226.382, 14.8612
30.048, 189.514, 13.6052
30.079, 170.32, 12.911
30.11, 181.157, 13.282
30.141, 171.685, 12.9403
30.172, 170.875, 12.916
30.203, 190.484, 13.6397
30.234, 166.182, 12.7073
30.265, 184.117, 13.3915
30.296, 182.933, 13.3763
30.327, 201.362, 13.9944
30.358, 201.207, 14.0175
30.389, 359.358, 18.7299
30.42, 729.894, 26.679
30.451, 405.478, 19.8766
30.482, 217.165, 14.5738
30.513, 180.708, 13.2491
30.544, 201.393, 13.9965
30.575, 190.083, 13.611
30.606, 155.132, 12.302
30.637, 199.713, 13.9815
30.668, 183.348, 13.371
30.699, 214.48, 14.4588
30.73, 192.531, 13.7161
30.761, 236.037, 15.1714
30.792, 386.758, 19.4075
30.823, 880.119, 29.2609
30.854, 804.637, 28.0379
30.885, 364.925, 18.8668
30.916, 208.474, 14.2497
30.947, 202.825, 14.0622
30.978, 197.406, 13.854
31.009, 202.422, 14.0342
31.04, 204.239, 14.0925
31.071, 198.721, 13.912
31.102, 185.039, 13.423
31.133, 205.944, 14.1764
31.164, 187.096, 13.5014
31.195, 178.643, 13.2046
31.226, 184.455, 13.416
31.257, 192.081, 13.754
31.288, 178.545, 13.1974
31.319, 185.781, 13.4769
31.35, 177.022, 13.1569
31.381, 190.124, 13.6139
31.412, 205.657, 14.1567
31.443, 182.824, 13.3683
31.474, 189.734, 13.586
31.505, 189.935, 13.6004
31.536, 188.606, 13.5751
31.567, 191.867, 13.6688
31.598, 172.923, 12.9967
31.629, 182.616, 13.3532
31.66, 177.36, 13.1458
31.691, 190.273, 13.6246
31.722, 224.543, 14.8045
31.753, 225.711, 14.8492
31.784, 279.992, 16.5542
31.815, 405.34, 19.9178
31.846, 972.512, 30.833
31.877, 1409.06, 37.0831
31.908, 525.912, 22.6895
31.939, 292.379, 16.8783
31.97, 220.814, 14.6869
32.001, 207.093, 14.2219
32.032, 269.894, 16.2144
32.063, 194.373, 13.7775
32.094, 231.569, 15.0405
32.125, 255.903, 15.7779
32.156, 465.056, 21.3114
32.187, 390.563, 19.5492
32.218, 236.752, 15.2174
32.249, 211.419, 14.3839
32.28, 180.249, 13.2871
32.311, 187.052, 13.4982
32.342, 197.264, 13.8782
32.373, 160.165, 12.5059
32.404, 179.709, 13.2473
32.435, 165.794, 12.7149
32.466, 222.45, 14.7307
32.497, 189.475, 13.6024
32.528, 209.545, 14.2895
32.559, 190.217, 13.6206
32.59, 186.472, 13.4915
32.621, 182.491, 13.344
32.652, 179.559, 13.2362
32.683, 188.713, 13.5827
32.714, 191.176, 13.6543
32.745, 172.733, 12.9824
32.776, 164.28, 12.6735
32.807, 184.53, 13.4215
32.838, 171.066, 12.9675
32.869, 241.631, 15.3729
32.9, 161.207, 12.5112
32.931, 161.19, 12.5099
32.962, 175.357, 13.0332
32.993, 188.858, 13.4887
33.024, 168.658, 12.7484
33.055, 189.36, 13.4902
33.086, 196.823, 13.7121
33.117, 301.172, 16.9938
33.148, 669.878, 25.3476
33.179, 525.605, 22.3862
33.21, 260.98, 15.7934
33.241, 219.564, 14.4762
33.272, 195.923, 13.7162
33.303, 222.868, 14.6305
33.334, 201.097, 13.9089
33.365, 186.459, 13.3859
33.396, 258.75, 15.8039
33.427, 308.191, 17.226
33.458, 530.008, 22.6355
33.489, 1232.8, 34.3851
33.52, 1046.18, 31.8194
33.551, 504.761, 22.0667
33.582, 294.696, 16.8444
33.613, 258.302, 15.7765
33.644, 212.263, 14.3094
33.675, 202.655, 13.9501
33.706, 208.278, 14.1375
33.737, 185.746, 13.3692
33.768, 183.989, 13.2771
33.799, 183.469, 13.2743
33.83, 167.388, 12.6887
33.861, 148.913, 11.9602
33.892, 188.225, 13.4779
33.923, 159.919, 12.4113
33.954, 166.814, 12.6452
33.985, 174.87, 12.9612
34.016, 165.299, 12.603
34.047, 163.435, 12.4973
34.078, 172.602, 12.864
34.109, 167.838, 12.6864
34.14, 175.472, 12.9702
34.171, 158.023, 12.3012
34.202, 157.744, 12.3169
34.233, 184.285, 13.264
34.264, 138.078, 11.5058
34.295, 165.886, 12.6111
34.326, 157.4, 12.29
34.357, 154.952, 12.211
34.388, 195.692, 13.7337
34.419, 159.78, 12.4005
34.45, 206.32, 14.1024
34.481, 163.924, 12.6086
34.512, 169.798, 12.8345
34.543, 170.152, 12.8613
34.574, 158.531, 12.4162
34.605, 148.446, 12.0397
34.636, 197.693, 13.8741
34.667, 154.972, 12.2892
34.698, 158.395, 12.4438
34.729, 160.665, 12.5068
34.76, 179.781, 13.2526
34.791, 155.326, 12.3173
34.822, 195.957, 13.8205
34.853, 202.767, 14.0581
34.884, 374.1, 19.1125
34.915, 360.032, 18.765
34.946, 221.198, 14.7124
34.977, 188.638, 13.5774
35.008, 215.756, 14.5119
35.039, 327.973, 17.8898
35.07, 444.378, 20.8287
35.101, 872.512, 29.121
35.132, 1040.22, 31.8754
35.163, 449.3, 20.9446
35.194, 261.154, 15.9507
35.225, 201.79, 14.0241
35.256, 202.967, 14.072
35.287, 192.63, 13.6884
35.318, 241.6, 15.3399
35.349, 218.65, 14.6077
35.38, 188.413, 13.5612
35.411, 195.656, 13.8338
35.442, 161.453, 12.5682
35.473, 170.473, 12.8856
35.504, 152.466, 12.2063
35.535, 180.579, 13.2754
35.566, 158.811, 12.4382
35.597, 162.766, 12.5943
35.628, 170.945, 12.9213
35.659, 187.017, 13.4957
35.69, 170.501, 12.8877
35.721, 172.93, 12.9972
35.752, 169.354, 12.8378
35.783, 174.425, 13.0361
35.814, 195.32, 13.81
35.845, 220.712, 14.6477
35.876, 367.119, 18.9296
35.907, 895.874, 29.5244
35.938, 1881.15, 42.8622
35.969, 907.54, 29.7155
36.0, 360.018, 18.7388
36.031, 255.262, 15.7985
36.062, 220.838, 14.6561
36.093, 193.127, 13.7238
36.124, 194.596, 13.7588
36.155, 177.369, 13.1465
36.186, 179.752, 13.2146
36.217, 201.307, 14.0245
36.248, 249.687, 15.6037
36.279, 450.259, 20.9211
36.31, 839.516, 28.6166
36.341, 456.987, 21.075
36.372, 273.529, 16.3154
36.403, 227.805, 14.9225
36.434, 164.996, 12.6537
36.465, 166.138, 12.7413
36.496, 131.821, 11.3447
36.527, 153.154, 12.2222
36.558, 166.04, 12.7337
36.589, 158.164, 12.4257
36.62, 156.371, 12.3614
36.651, 154.659, 12.3032
36.682, 135.067, 11.4969
36.713, 146.296, 11.9442
36.744, 157.235, 12.391
36.775, 160.513, 12.5331
36.806, 129.81, 11.2553
36.837, 173.737, 13.0212
36.868, 197.178, 13.8722
36.899, 304.055, 17.2114
36.93, 203.146, 14.0844
36.961, 171.599, 12.9338
36.992, 148.958, 12.0417
37.023, 136.521, 11.5374
37.054, 142.666, 11.8063
37.085, 127.802, 11.2083
37.116, 116.802, 10.6619
37.147, 125.785, 11.0741
37.178, 140.817, 11.734
37.209, 121.224, 10.8857
37.24, 138.917, 11.657
37.271, 135.234, 11.5112
37.302, 138.977, 11.662
37.333, 131.907, 11.3521
37.364, 146.199, 11.9764
37.395, 160.181, 12.5072
37.426, 141.662, 11.7636
37.457, 123.269, 10.9811
37.488, 155.179, 12.3056
37.519, 138.651, 11.6346
37.55, 152.296, 12.1927
37.581, 128.574, 11.1903
37.612, 149.274, 12.0673
37.643, 117.231, 10.7011
37.674, 130.734, 11.293
37.705, 157.921, 12.4066
37.736, 133.092, 11.4119
37.767, 135.452, 11.4882
37.798, 155.271, 12.313
37.829, 150.676, 12.141
37.86, 147.685, 12.0177
37.891, 145.172, 11.9323
37.922, 123.297, 10.9836
37.953, 136.732, 11.5553
37.984, 144.923, 11.9118
38.015, 131.208, 11.334
38.046, 132.697, 11.378
38.077, 141.92, 11.7851
38.108, 147.807, 12.0276
38.139, 130.657, 11.2864
38.17, 141.51, 11.751
38.201, 160.261, 12.5134
38.232, 128.733, 11.2042
38.263, 141.691, 11.766
38.294, 132.122, 11.3705
38.325, 155.947, 12.3278
38.356, 150.464, 12.124
38.387, 129.302, 11.2536
38.418, 151.632, 12.1786
38.449, 119.657, 10.8326
38.48, 162.582, 12.6561
38.511, 124.588, 11.0548
38.542, 135.932, 11.5289
38.573, 126.562, 11.1426
38.604, 134.176, 11.4628
38.635, 139.752, 11.6859
38.666, 118.681, 10.7886
38.697, 149.131, 12.0953
38.728, 136.499, 11.5355
38.759, 112.693, 10.5082
38.79, 163.319, 12.6371
38.821, 124.144, 11.0154
38.852, 143.699, 11.8513
38.883, 138.581, 11.6287
38.914, 146.446, 11.9565
38.945, 150.928, 12.1613
38.976, 132.569, 11.3671
39.007, 149.634, 12.0964
39.038, 176.387, 13.1461
39.069, 156.668, 12.3849
39.1, 156.529, 12.3739
39.131, 194.63, 13.8306
39.162, 279.67, 16.5934
39.193, 385.883, 19.4372
39.224, 310.601, 17.4427
39.255, 197.26, 13.8779
39.286, 164.919, 12.6851
39.317, 176.33, 13.1418
39.348, 128.339, 11.2124
39.379, 133.798, 11.4305
39.41, 151.321, 12.1536
39.441, 161.141, 12.5439
39.472, 151.208, 12.1445
39.503, 153.826, 12.2758
39.534, 175.959, 13.1142
39.565, 147.335, 11.9892
39.596, 130.725, 11.2923
39.627, 184.748, 13.4373
39.658, 227.554, 14.9061
39.689, 326.141, 17.8431
39.72, 721.796, 26.5973
39.751, 969.127, 30.8501
39.782, 613.012, 24.4747
39.813, 797.548, 27.9614
39.844, 1139.08, 33.3416
39.875, 632.65, 24.8843
39.906, 296.709, 17.0432
39.937, 256.68, 15.8258
39.968, 209.806, 14.3073
39.999, 166.376, 12.7595
40.03, 172.783, 12.9862
40.061, 174.701, 13.0567
40.092, 179.225, 13.2476
40.123, 194.896, 13.78
40.154, 205.965, 14.1779
40.185, 261.2, 15.9834
40.216, 497.018, 22.0468
40.247, 452.407, 21.021
40.278, 330.537, 17.9762
40.309, 222.263, 14.7183
40.34, 190.332, 13.6288
40.371, 156.62, 12.381
40.402, 162.683, 12.6258
40.433, 165.604, 12.7378
40.464, 142.116, 11.8014
40.495, 149.412, 12.0784
40.526, 147.971, 12.0409
40.557, 136.413, 11.5697
40.588, 154.321, 12.2762
40.619, 153.263, 12.2309
40.65, 165.332, 12.7169
40.681, 189.428, 13.599
40.712, 197.043, 13.8971
40.743, 211.156, 14.366
40.774, 161.815, 12.5583
40.805, 149.432, 12.0801
40.836, 155.338, 12.3182
40.867, 144.265, 11.8578
40.898, 146.542, 11.9643
40.929, 152.472, 12.2067
40.96, 162.32, 12.6742
40.991, 150.302, 12.1109
41.022, 161.321, 12.5579
41.053, 159.412, 12.4853
41.084, 171.176, 12.9387
41.115, 193.011, 13.7503
41.146, 297.161, 17.0692
41.177, 627.195, 24.7466
41.208, 772.08, 27.4949
41.239, 456.553, 21.1452
41.27, 251.623, 15.6941
41.301, 185.833, 13.4806
41.332, 161.616, 12.5809
41.363, 156.317, 12.3571
41.394, 184.118, 13.4271
41.425, 158.117, 12.4605
41.456, 148.296, 12.0276
41.487, 138.26, 11.6018
41.518, 158.647, 12.4636
41.549, 144.811, 11.9026
41.58, 156.219, 12.3493
41.611, 149.627, 12.0958
41.642, 118.709, 10.7469
41.673, 151.192, 12.1432
41.704, 159.103, 12.4994
41.735, 144.2, 11.8927
41.766, 150.119, 12.1356
41.797, 152.09, 12.2153
41.828, 141.137, 11.7201
41.859, 156.605, 12.3799
41.89, 157.07, 12.4166
41.921, 134.806, 11.4748
41.952, 127.038, 11.1414
41.983, 144.983, 11.9168
42.014, 155.421, 12.3249
42.045, 149.412, 12.0785
42.076, 132.932, 11.3982
42.107, 157.426, 12.406
42.138, 193.541, 13.7532
42.169, 214.213, 14.4738
42.2, 191.387, 13.6694
42.231, 152.996, 12.2095
42.262, 139.273, 11.6868
42.293, 167.28, 12.7913
42.324, 192.802, 13.7354
42.355, 321.716, 17.7343
42.386, 444.029, 20.8123
42.417, 277.92, 16.4605
42.448, 187.976, 13.5649
42.479, 169.609, 12.8942
42.51, 139.143, 11.6759
42.541, 207.736, 14.2661
42.572, 196.782, 13.8787
42.603, 187.398, 13.5585
42.634, 161.679, 12.5858
42.665, 180.99, 13.3056
42.696, 196.861, 13.8843
42.727, 286.843, 16.7555
42.758, 339.835, 18.2143
42.789, 277.586, 16.4697
42.82, 195.027, 13.7893
42.851, 155.364, 12.2818
42.882, 152.155, 12.1425
42.913, 143.509, 11.7956
42.944, 150.315, 12.034
42.975, 136.02, 11.4543
43.006, 151.906, 12.0842
43.037, 149.86, 11.9976
43.068, 148.237, 11.9445
43.099, 138.3, 11.5243
43.13, 160.1, 12.388
43.161, 180.54, 13.2013
43.192, 155.667, 12.2295
43.223, 243.494, 15.337
43.254, 398.297, 19.5954
43.285, 403.078, 19.759
43.316, 339.22, 18.2076
43.347, 548.765, 22.9998
43.378, 417.571, 20.0634
43.409, 247.314, 15.4554
43.44, 170.334, 12.8021
43.471, 153.537, 12.1754
43.502, 159.197, 12.3926
43.533, 151.781, 12.0742
43.564, 160.612, 12.4277
43.595, 157.026, 12.2983
43.626, 158.274, 12.3207
43.657, 140.513, 11.6282
43.688, 210.883, 14.2488
43.719, 239.048, 15.1474
43.75, 198.915, 13.8243
43.781, 158.61, 12.3469
43.812, 147.444, 11.8806
43.843, 133.842, 11.3516
43.874, 149.763, 11.9899
43.905, 163.552, 12.543
43.936, 160.81, 12.443
43.967, 138.7, 11.5576
43.998, 142.254, 11.6925
44.029, 152.402, 12.1236
44.06, 131.758, 11.2975
44.091, 115.227, 10.5623
44.122, 138.108, 11.589
44.153, 152.905, 12.2024
44.184, 172.509, 12.9656
44.215, 146.804, 11.9459
44.246, 168.579, 12.8531
44.277, 157.653, 12.4239
44.308, 218.166, 14.5754
44.339, 493.945, 21.9973
44.37, 456.462, 21.0957
44.401, 290.012, 16.8544
44.432, 199.78, 13.9862
44.463, 165.097, 12.6988
44.494, 167.962, 12.8434
44.525, 216.165, 14.5724
44.556, 248.983, 15.5902
44.587, 271.916, 16.3065
44.618, 320.498, 17.7482
44.649, 291.382, 16.9055
44.68, 188.002, 13.6022
44.711, 143.751, 11.8962
44.742, 143.253, 11.855
44.773, 137.837, 11.6486
44.804, 140.551, 11.7528
44.835, 128.602, 11.2353
44.866, 129.33, 11.2561
44.897, 132.921, 11.4393
44.928, 136.558, 11.582
44.959, 149.42, 12.1188
44.99, 146.448, 11.9967
45.021, 117.215, 10.7445
45.052, 138.533, 11.6659
45.083, 123.654, 11.0154
45.114, 139.617, 11.7157
45.145, 121.958, 10.9515
45.176, 127.861, 11.2135
45.207, 121.04, 10.9132
45.238, 109.075, 10.3524
45.269, 114.107, 10.594
45.3, 131.835, 11.3882
45.331, 128.56, 11.2317
45.362, 134.829, 11.5185
45.393, 110.433, 10.4344
45.424, 125.382, 11.1253
45.455, 125.077, 11.0982
45.486, 138.282, 11.6862
45.517, 115.013, 10.6324
45.548, 105.59, 10.2073
45.579, 160.525, 12.5724
45.61, 181.141, 13.3528
45.641, 169.299, 12.9079
45.672, 121.119, 10.9203
45.703, 174.763, 13.0981
45.734, 146.489, 12.0001
45.765, 188.775, 13.6225
45.796, 156.043, 12.3742
45.827, 137.81, 11.6463
45.858, 138.701, 11.68
45.889, 141.648, 11.8032
45.92, 134.8, 11.5161
45.951, 118.267, 10.7957
45.982, 124.177, 11.0619
46.013, 132.055, 11.4072
46.044, 106.489, 10.2464
46.075, 133.608, 11.4561
46.106, 123.924, 11.0395
46.137, 104.242, 10.1244
46.168, 122.1, 10.9643
46.199, 145.468, 11.9566
46.23, 118.124, 10.7827
46.261, 106.822, 10.2312
46.292, 114.917, 10.6235
46.323, 133.764, 11.4695
46.354, 119.746, 10.8407
46.385, 116.832, 10.7094
46.416, 138.809, 11.6891
46.447, 123.714, 11.0207
46.478, 119.706, 10.8371
46.509, 132.733, 11.4231
46.54, 122.688, 10.973
46.571, 146.354, 11.989
46.602, 183.834, 13.4422
46.633, 220.745, 14.7477
46.664, 257.916, 15.9323
46.695, 207.843, 14.3072
46.726, 152.875, 12.3182
46.757, 134.484, 11.4891
46.788, 150.688, 12.1816
46.819, 158.454, 12.4871
46.85, 259.616, 15.9764
46.881, 267.499, 16.2176
46.912, 219.262, 14.7145
46.943, 196.153, 13.8689
46.974, 230.965, 15.065
47.005, 261.935, 16.0584
47.036, 201.363, 14.0626
47.067, 146.813, 12.0266
47.098, 139.909, 11.7402
47.129, 135.713, 11.552
47.16, 125.305, 11.1184
47.191, 131.892, 11.3931
47.222, 123.14, 11.0134
47.253, 128.835, 11.2558
47.284, 138.608, 11.6722
47.315, 152.887, 12.2399
47.346, 196.08, 13.8985
47.377, 250.941, 15.7128
47.408, 216.73, 14.6105
47.439, 161.138, 12.5819
47.47, 135.587, 11.5833
47.501, 152.297, 12.232
47.532, 106.446, 10.2423
47.563, 123.256, 11.0237
47.594, 113.365, 10.5708
47.625, 114.305, 10.6125
47.656, 108.649, 10.3588
47.687, 134.102, 11.4985
47.718, 116.817, 10.7081
47.749, 104.478, 10.1473
47.78, 122.216, 10.9747
47.811, 124.023, 11.0483
47.842, 118.49, 10.8161
47.873, 110.861, 10.4284
47.904, 114.272, 10.6094
47.935, 105.496, 10.1982
47.966, 114.194, 10.6021
47.997, 109.289, 10.3728
48.028, 111.155, 10.4561
48.059, 109.401, 10.3834
48.09, 124.424, 11.084
48.121, 107.757, 10.3208
48.152, 103.4, 10.0904
48.183, 120.332, 10.8937
48.214, 108.654, 10.3593
48.245, 107.607, 10.3064
48.276, 109.312, 10.3749
48.307, 101.763, 10.0266
48.338, 126.705, 11.1551
48.369, 127.056, 11.1861
48.4, 126.567, 11.1865
48.431, 114.259, 10.6082
48.462, 110.383, 10.4297
48.493, 102.661, 10.0663
48.524, 100.274, 9.92818
48.555, 126.321, 11.1647
48.586, 137.311, 11.6459
48.617, 119.107, 10.8273
48.648, 126.913, 11.1734
48.679, 99.6605, 9.91616
48.71, 110.513, 10.442
48.741, 110.87, 10.4758
48.772, 117.748, 10.7934
48.803, 121.257, 10.9328
48.834, 131.28, 11.3828
48.865, 127.508, 11.2258
48.896, 154.626, 12.3397
48.927, 139.252, 11.7264
48.958, 126.549, 11.1848
48.989, 150.706, 12.183
49.02, 150.812, 12.1916
49.051, 211.119, 14.4305
49.082, 196.908, 13.9223
49.113, 173.627, 13.0866
49.144, 142.204, 11.8496
49.175, 141.372, 11.8629
49.206, 134.577, 11.5392
49.237, 151.557, 12.2518
49.268, 144.376, 11.9479
49.299, 118.697, 10.835
49.33, 119.734, 10.8843
49.361, 129.767, 11.3371
49.392, 119.144, 10.8757
49.423, 113.994, 10.6295
49.454, 118.1, 10.8257
49.485, 105.789, 10.2266
49.516, 116.97, 10.7674
49.547, 109.068, 10.3987
49.578, 121.489, 10.9537
49.609, 136.66, 11.6326
49.64, 154.905, 12.4015
49.671, 159.037, 12.533
49.702, 185.125, 13.5366
49.733, 152.796, 12.3118
49.764, 125.618, 11.1462
49.795, 122.71, 11.0191
49.826, 99.5466, 9.95423
49.857, 121.276, 10.9345
49.888, 127.902, 11.2605
49.919, 130.91, 11.3936
49.95, 111.793, 10.5161
49.981, 111.956, 10.5315
50.0, 108.919, 10.3846