File: XRD/DWTR_IL/IDB data/IL_11.csv
twotheta, intensity, esd
25.0, 389.672, 19.5296
25.031, 412.586, 20.1051
25.062, 417.237, 20.2358
25.093, 386.263, 19.4568
25.124, 367.358, 18.9424
25.155, 418.494, 20.2255
25.186, 373.111, 19.1124
25.217, 452.207, 21.0123
25.248, 444.298, 20.8485
25.279, 479.13, 21.641
25.31, 1145.43, 33.5012
25.341, 3494.77, 58.4217
25.372, 1047.92, 31.9934
25.403, 557.527, 23.3678
25.434, 448.796, 20.9444
25.465, 391.937, 19.5695
25.496, 418.795, 20.24
25.527, 438.483, 20.7361
25.558, 474.124, 21.5695
25.589, 484.965, 21.8599
25.62, 724.278, 26.6178
25.651, 1851.72, 42.5526
25.682, 8061.66, 88.7898
25.713, 3257.69, 56.3754
25.744, 952.941, 30.4919
25.775, 553.096, 23.2641
25.806, 450.417, 20.9517
25.837, 444.379, 20.8523
25.868, 419.612, 20.2559
25.899, 433.715, 20.6031
25.93, 428.993, 20.5182
25.961, 715.918, 26.472
25.992, 1152.52, 33.6223
26.023, 587.325, 23.9721
26.054, 433.046, 20.5945
26.085, 395.912, 19.6945
26.116, 366.502, 18.8983
26.147, 409.372, 19.9961
26.178, 393.466, 19.6214
26.209, 406.107, 19.908
26.24, 412.521, 20.0543
26.271, 445.338, 20.8514
26.302, 439.975, 20.7142
26.333, 412.608, 20.0585
26.364, 428.799, 20.4622
26.395, 424.35, 20.3662
26.426, 398.258, 19.7379
26.457, 448.508, 20.9768
26.488, 427.332, 20.4388
26.519, 421.898, 20.2954
26.55, 450.628, 21.0071
26.581, 475.476, 21.5864
26.612, 479.286, 21.648
26.643, 510.195, 22.3263
26.674, 506.069, 22.2742
26.705, 626.323, 24.7132
26.736, 531.716, 22.7926
26.767, 477.88, 21.6066
26.798, 481.12, 21.6646
26.829, 526.207, 22.6819
26.86, 480.276, 21.6706
26.891, 493.916, 21.9749
26.922, 505.363, 22.2432
26.953, 596.511, 24.1466
26.984, 726.356, 26.6222
27.015, 2082.87, 45.0846
27.046, 5074.81, 70.4513
27.077, 1404.04, 37.0058
27.108, 681.206, 25.7774
27.139, 743.811, 26.9556
27.17, 1796.45, 41.9086
27.201, 1663.76, 40.2913
27.232, 666.807, 25.527
27.263, 610.679, 24.4607
27.294, 737.885, 26.8647
27.325, 1752.72, 41.4115
27.356, 1648.98, 40.2181
27.387, 739.853, 26.8652
27.418, 518.001, 22.5387
27.449, 415.856, 20.1688
27.48, 428.579, 20.4517
27.511, 439.5, 20.7148
27.542, 398.7, 19.7356
27.573, 419.272, 20.2159
27.604, 434.244, 20.5818
27.635, 387.456, 19.443
27.666, 404.75, 19.8415
27.697, 364.104, 18.85
27.728, 389.388, 19.4909
27.759, 390.672, 19.5307
27.79, 391.49, 19.5716
27.821, 391.664, 19.5803
27.852, 379.537, 19.2653
27.883, 381.97, 19.3143
27.914, 412.578, 20.0809
27.945, 416.462, 20.1745
27.976, 678.291, 25.704
28.007, 1682.08, 40.521
28.038, 1172.99, 33.8605
28.069, 530.603, 22.724
28.1, 431.402, 20.5164
28.131, 379.464, 19.2616
28.162, 380.389, 19.2837
28.193, 384.022, 19.3686
28.224, 394.875, 19.6672
28.255, 400.269, 19.7408
28.286, 388.674, 19.4796
28.317, 391.141, 19.5542
28.348, 364.371, 18.8386
28.379, 386.409, 19.4395
28.41, 432.807, 20.56
28.441, 464.377, 21.3033
28.472, 492.496, 21.9117
28.503, 697.778, 26.0886
28.534, 878.807, 29.2839
28.565, 631.168, 24.8079
28.596, 678.07, 25.7326
28.627, 1441.22, 37.5184
28.658, 5241.75, 71.5225
28.689, 2189.96, 46.2435
28.72, 780.395, 27.6176
28.751, 502.207, 22.1257
28.782, 448.989, 20.9535
28.813, 394.751, 19.6367
28.844, 401.896, 19.773
28.875, 397.369, 19.6698
28.906, 391.94, 19.5696
28.937, 374.452, 19.0811
28.968, 407.356, 19.9214
28.999, 566.988, 23.5176
29.03, 1217.02, 34.4482
29.061, 2623.22, 50.6598
29.092, 1389.28, 36.8614
29.123, 678.612, 25.7532
29.154, 375.068, 19.1374
29.185, 372.152, 19.0633
29.216, 371.008, 19.0548
29.247, 368.62, 18.9571
29.278, 421.013, 20.2763
29.309, 349.282, 18.4835
29.34, 398.102, 19.7302
29.371, 352.496, 18.5499
29.402, 332.64, 18.0377
29.433, 375.422, 19.1555
29.464, 370.581, 19.0077
29.495, 344.968, 18.3584
29.526, 344.044, 18.3352
29.557, 345.499, 18.3866
29.588, 353.631, 18.6097
29.619, 347.109, 18.3943
29.65, 323.234, 17.7644
29.681, 307.852, 17.3435
29.712, 359.904, 18.8357
29.743, 343.936, 18.3035
29.774, 353.873, 18.571
29.805, 353.526, 18.5784
29.836, 417.609, 20.1592
29.867, 344.399, 18.3281
29.898, 335.567, 18.1431
29.929, 360.236, 18.7506
29.96, 348.781, 18.4312
29.991, 384.869, 19.3866
30.022, 373.002, 19.0817
30.053, 385.748, 19.4309
30.084, 379.001, 19.263
30.115, 317.134, 17.5893
30.146, 341.54, 18.2537
30.177, 318.387, 17.6317
30.208, 296.891, 16.998
30.239, 316.828, 17.5724
30.27, 345.763, 18.3747
30.301, 346.033, 18.3631
30.332, 328.346, 17.8839
30.363, 352.367, 18.5432
30.394, 354.427, 18.6001
30.425, 420.526, 20.2294
30.456, 911.68, 29.8208
30.487, 1064.14, 32.2189
30.518, 497.571, 22.0503
30.549, 354.629, 18.6107
30.58, 351.386, 18.543
30.611, 352.053, 18.5267
30.642, 347.417, 18.4107
30.673, 301.019, 17.1502
30.704, 341.954, 18.2498
30.735, 374.583, 19.1127
30.766, 362.734, 18.8297
30.797, 392.153, 19.5316
30.828, 481.364, 21.6756
30.859, 759.191, 27.228
30.89, 1499.63, 38.2049
30.921, 975.841, 30.8474
30.952, 459.678, 21.1997
30.983, 395.727, 19.6609
31.014, 371.069, 19.0579
31.045, 367.195, 18.9593
31.076, 317.343, 17.6281
31.107, 349.983, 18.469
31.138, 350.741, 18.509
31.169, 352.088, 18.5542
31.2, 340.609, 18.23
31.231, 372.985, 19.0809
31.262, 375.476, 19.1333
31.293, 333.27, 18.0189
31.324, 339.987, 18.1967
31.355, 338.586, 18.1739
31.386, 333.447, 18.0022
31.417, 323.176, 17.7344
31.448, 349.46, 18.4671
31.479, 317.105, 17.5877
31.51, 353.521, 18.5782
31.541, 344.797, 18.3493
31.572, 352.701, 18.5351
31.603, 324.222, 17.7651
31.634, 342.006, 18.2786
31.665, 368.125, 18.9067
31.696, 336.632, 18.1213
31.727, 316.272, 17.5686
31.758, 343.22, 18.2913
31.789, 358.711, 18.6966
31.82, 409.673, 19.9869
31.851, 505.13, 22.2114
31.882, 846.67, 28.7121
31.913, 2004.47, 44.1731
31.944, 1510.75, 38.3759
31.975, 666.876, 25.5296
32.006, 440.686, 20.7247
32.037, 389.249, 19.5084
32.068, 366.166, 18.881
32.099, 359.271, 18.7258
32.13, 312.65, 17.4483
32.161, 394.559, 19.5787
32.192, 502.916, 22.1354
32.223, 746.88, 26.9959
32.254, 439.564, 20.6491
32.285, 400.488, 19.7276
32.316, 336.422, 18.1101
32.347, 306.807, 17.2846
32.378, 383.981, 19.3419
32.409, 284.495, 16.6756
32.44, 319.539, 17.6684
32.471, 315.318, 17.5156
32.502, 374.454, 19.0812
32.533, 308.225, 17.337
32.564, 329.783, 17.9091
32.595, 325.644, 17.7897
32.626, 304.656, 17.2458
32.657, 300.435, 17.0892
32.688, 307.994, 17.2695
32.719, 299.894, 17.0584
32.75, 300.522, 17.0118
32.781, 291.687, 16.7551
32.812, 299.134, 16.9604
32.843, 301.61, 17.0188
32.874, 330.101, 17.7956
32.905, 359.805, 18.5777
32.936, 317.994, 17.3977
32.967, 312.663, 17.2882
32.998, 329.738, 17.776
33.029, 306.294, 17.0936
33.06, 323.252, 17.6065
33.091, 342.414, 18.0947
33.122, 347.984, 18.262
33.153, 421.22, 20.0548
33.184, 672.388, 25.4073
33.215, 1076.55, 32.1262
33.246, 607.465, 24.158
33.277, 387.482, 19.299
33.308, 306.038, 17.1598
33.339, 327.86, 17.7264
33.37, 315.772, 17.407
33.401, 345.655, 18.2152
33.432, 359.718, 18.5485
33.463, 454.059, 20.852
33.494, 551.686, 22.982
33.525, 1108.97, 32.5467
33.556, 1899.02, 42.5924
33.587, 1285.71, 35.1187
33.618, 577.02, 23.4928
33.649, 431.818, 20.3754
33.68, 387.2, 19.2611
33.711, 313.199, 17.3178
33.742, 327.034, 17.6818
33.773, 348.8, 18.2546
33.804, 317.116, 17.3757
33.835, 327.548, 17.6837
33.866, 329.041, 17.7127
33.897, 276.165, 16.2714
33.928, 312.383, 17.2464
33.959, 304.747, 17.0339
33.99, 310.661, 17.2303
34.021, 311.902, 17.2198
34.052, 300.464, 16.9005
34.083, 332.74, 17.8089
34.114, 315.378, 17.3327
34.145, 279.483, 16.3538
34.176, 318.958, 17.4766
34.207, 331.852, 17.8124
34.238, 294.781, 16.8221
34.269, 286.057, 16.5969
34.3, 319.137, 17.5392
34.331, 297.791, 16.9663
34.362, 311.838, 17.376
34.393, 277.238, 16.3631
34.424, 281.138, 16.5072
34.455, 301.846, 17.1142
34.486, 294.775, 16.8769
34.517, 287.574, 16.7131
34.548, 328.1, 17.8441
34.579, 306.188, 17.2772
34.61, 294.303, 16.9054
34.641, 332.528, 17.9788
34.672, 279.623, 16.5039
34.703, 286.825, 16.7262
34.734, 296.665, 16.9851
34.765, 281.296, 16.5451
34.796, 296.111, 16.9533
34.827, 314.024, 17.4707
34.858, 285.117, 16.6549
34.889, 329.239, 17.8796
34.92, 368.352, 18.9183
34.951, 594.55, 24.0475
34.982, 462.534, 21.2188
35.013, 335.165, 18.0686
35.044, 340.123, 18.204
35.075, 422.894, 20.273
35.106, 585.31, 23.8502
35.137, 771.602, 27.427
35.168, 1429.62, 37.2799
35.199, 1225.44, 34.5205
35.23, 533.968, 22.8054
35.261, 359.908, 18.6829
35.292, 349.553, 18.4206
35.323, 331.851, 17.9685
35.354, 348.427, 18.4383
35.385, 437.853, 20.6601
35.416, 428.306, 20.4386
35.447, 324.156, 17.7882
35.478, 301.46, 17.1198
35.509, 280.957, 16.5538
35.54, 285.059, 16.68
35.571, 307.199, 17.2793
35.602, 295.777, 16.9621
35.633, 284.762, 16.6626
35.664, 292.395, 16.8515
35.695, 288.837, 16.7582
35.726, 287.379, 16.73
35.757, 290.407, 16.7928
35.788, 333.309, 18.021
35.819, 315.165, 17.5071
35.85, 349.788, 18.4587
35.881, 332.574, 18.0077
35.912, 510.662, 22.3254
35.943, 900.083, 29.5685
35.974, 2067.04, 44.8369
36.005, 1975.75, 43.862
36.036, 757.026, 27.1679
36.067, 488.28, 21.789
36.098, 352.68, 18.534
36.129, 318.794, 17.6272
36.16, 312.045, 17.4146
36.191, 278.106, 16.443
36.222, 293.724, 16.9281
36.253, 336.031, 18.1153
36.284, 312.17, 17.4216
36.315, 484.232, 21.7387
36.346, 1007.95, 31.334
36.377, 1026.06, 31.6377
36.408, 488.338, 21.857
36.439, 319.897, 17.6612
36.47, 321.962, 17.7213
36.501, 322.458, 17.7486
36.532, 271.462, 16.2213
36.563, 272.301, 16.2714
36.594, 284.428, 16.6717
36.625, 250.466, 15.5919
36.656, 293.856, 16.9357
36.687, 281.589, 16.5623
36.718, 297.569, 17.009
36.749, 278.696, 16.4779
36.78, 298.87, 17.0555
36.811, 275.275, 16.3907
36.842, 311.162, 17.447
36.873, 271.41, 16.2764
36.904, 302.993, 17.2069
36.935, 391.813, 19.5389
36.966, 458.95, 21.1212
36.997, 320.574, 17.6986
37.028, 311.981, 17.4382
37.059, 270.499, 16.2511
37.09, 270.634, 16.2591
37.121, 285.316, 16.6665
37.152, 252.152, 15.6665
37.183, 260.546, 15.9436
37.214, 243.659, 15.409
37.245, 255.624, 15.791
37.276, 267.252, 16.1436
37.307, 301.087, 17.1263
37.338, 265.545, 16.0699
37.369, 248.927, 15.587
37.4, 277.574, 16.4693
37.431, 248.157, 15.5693
37.462, 296.363, 17.0237
37.493, 251.479, 15.7777
37.524, 245.036, 15.4344
37.555, 228.992, 14.9365
37.586, 255.258, 15.7986
37.617, 265.098, 16.0723
37.648, 248.263, 15.5454
37.679, 255.282, 15.8
37.71, 247.873, 15.521
37.741, 254.216, 15.734
37.772, 252.601, 15.6944
37.803, 263.234, 16.0183
37.834, 294.972, 16.9438
37.865, 243.851, 15.4211
37.896, 240.236, 15.2845
37.927, 243.442, 15.3952
37.958, 258.177, 15.8581
37.989, 252.729, 15.7023
38.02, 237.325, 15.223
38.051, 253.905, 15.745
38.082, 263.735, 16.0192
38.113, 251.244, 15.6403
38.144, 257.385, 15.8394
38.175, 254.917, 15.7473
38.206, 219.999, 14.6329
38.237, 254.126, 15.7285
38.268, 277.236, 16.4492
38.299, 255.85, 15.7749
38.33, 260.918, 15.9365
38.361, 272.211, 16.2952
38.392, 280.129, 16.505
38.423, 286.671, 16.7172
38.454, 257.092, 15.8515
38.485, 252.084, 15.6622
38.516, 239.797, 15.2875
38.547, 275.61, 16.3816
38.578, 266.886, 16.1511
38.609, 269.838, 16.2407
38.64, 298.878, 17.0838
38.671, 257.292, 15.8337
38.702, 277.44, 16.4613
38.733, 244.151, 15.44
38.764, 270.524, 16.2233
38.795, 288.991, 16.7954
38.826, 267.515, 16.1596
38.857, 274.177, 16.3253
38.888, 256.325, 15.8041
38.919, 279.203, 16.5079
38.95, 267.982, 16.1583
38.981, 288.972, 16.766
39.012, 241.744, 15.3493
39.043, 275.11, 16.3808
39.074, 273.474, 16.3708
39.105, 257.484, 15.8455
39.136, 275.808, 16.4517
39.167, 270.727, 16.2063
39.198, 357.544, 18.6866
39.229, 563.328, 23.4874
39.26, 537.016, 22.8523
39.291, 385.391, 19.4129
39.322, 283.096, 16.5936
39.353, 252.511, 15.6888
39.384, 287.736, 16.7508
39.415, 268.73, 16.174
39.446, 304.866, 17.23
39.477, 234.87, 15.1594
39.508, 237.241, 15.1864
39.539, 273.293, 16.3016
39.57, 292.63, 16.8651
39.601, 264.4, 16.0596
39.632, 303.687, 17.1909
39.663, 275.282, 16.3911
39.694, 318.321, 17.6281
39.725, 471.656, 21.4573
39.756, 819.449, 28.2818
39.787, 1295.27, 35.5663
39.818, 883.089, 29.3939
39.849, 844.808, 28.6655
39.88, 1453.31, 37.642
39.911, 961.838, 30.6356
39.942, 488.262, 21.8317
39.973, 352.901, 18.5456
40.004, 302.552, 17.1818
40.035, 316.644, 17.5622
40.066, 278.706, 16.4785
40.097, 299.496, 17.0912
40.128, 274.464, 16.3424
40.159, 313.395, 17.4627
40.19, 319.382, 17.6328
40.221, 422.273, 20.2899
40.252, 579.941, 23.8101
40.283, 718.531, 26.4963
40.314, 593.032, 24.0058
40.345, 360.694, 18.7744
40.376, 328.356, 17.911
40.407, 271.119, 16.2298
40.438, 283.067, 16.6205
40.469, 304.612, 17.2433
40.5, 305.266, 17.2252
40.531, 255.577, 15.7881
40.562, 264.356, 16.0569
40.593, 256.003, 15.8144
40.624, 253.079, 15.6938
40.655, 256.262, 15.8003
40.686, 294.532, 16.9465
40.717, 277.099, 16.4411
40.748, 334.208, 18.0433
40.779, 384.493, 19.3677
40.81, 297.089, 17.0094
40.841, 294.751, 16.9591
40.872, 266.743, 16.1424
40.903, 267.151, 16.1376
40.934, 253.457, 15.7173
40.965, 300.703, 17.1322
40.996, 268.661, 16.1698
41.027, 298.779, 17.0781
41.058, 256.379, 15.8075
41.089, 258.052, 15.8504
41.12, 323.267, 17.7394
41.151, 336.447, 18.1377
41.182, 395.379, 19.6194
41.213, 725.609, 26.577
41.244, 1050.75, 32.0051
41.275, 672.596, 25.5617
41.306, 429.069, 20.4286
41.337, 354.329, 18.595
41.368, 305.385, 17.2594
41.399, 300.826, 17.1392
41.43, 296.173, 17.0128
41.461, 271.056, 16.2845
41.492, 262.283, 15.9901
41.523, 225.242, 14.8186
41.554, 244.496, 15.4619
41.585, 282.769, 16.603
41.616, 235.723, 15.1515
41.647, 268.548, 16.1924
41.678, 316.165, 17.5356
41.709, 251.549, 15.6593
41.74, 262.159, 15.9826
41.771, 240.258, 15.2858
41.802, 269.984, 16.2201
41.833, 265.116, 16.0734
41.864, 262.265, 16.0188
41.895, 262.547, 16.0062
41.926, 263.938, 16.0612
41.957, 269.139, 16.1986
41.988, 257.224, 15.8295
42.019, 262.825, 16.0231
42.05, 270.663, 16.2316
42.081, 257.833, 15.837
42.112, 266.959, 16.126
42.143, 263.048, 16.007
42.174, 280.461, 16.5246
42.205, 352.098, 18.529
42.236, 314.005, 17.4696
42.267, 299.255, 17.0775
42.298, 296.272, 16.9626
42.329, 307.273, 17.3109
42.36, 318.329, 17.6015
42.391, 402.687, 19.8119
42.422, 565.905, 23.4727
42.453, 503.661, 22.1682
42.484, 326.491, 17.8626
42.515, 286.93, 16.7323
42.546, 301.042, 17.1237
42.577, 297.585, 17.0099
42.608, 344.229, 18.3191
42.639, 298.845, 17.0541
42.67, 298.807, 17.0519
42.701, 289.914, 16.8207
42.732, 326.41, 17.8315
42.763, 365.852, 18.8899
42.794, 566.049, 23.4787
42.825, 393.22, 19.5605
42.856, 320.99, 17.6144
42.887, 269.555, 16.1652
42.918, 260.701, 15.8937
42.949, 248.739, 15.4843
42.98, 291.818, 16.7627
43.011, 254.108, 15.6082
43.042, 257.44, 15.6949
43.073, 236.302, 15.0647
43.104, 271.295, 16.0967
43.135, 271.053, 16.1107
43.166, 265.168, 15.9308
43.197, 243.352, 15.3588
43.228, 276.083, 16.2385
43.259, 322.244, 17.5777
43.29, 475.052, 21.3266
43.321, 515.27, 22.2105
43.352, 494.303, 21.7564
43.383, 618.931, 24.3835
43.414, 575.797, 23.4625
43.445, 397.354, 19.5259
43.476, 301.926, 17.0096
43.507, 280.956, 16.4119
43.538, 254.687, 15.6438
43.569, 241.85, 15.2337
43.6, 248.957, 15.4382
43.631, 266.106, 15.9584
43.662, 293.186, 16.7585
43.693, 254.787, 15.5912
43.724, 310.37, 17.2142
43.755, 346.5, 18.2092
43.786, 348.094, 18.2176
43.817, 292.317, 16.7087
43.848, 235.941, 15.0112
43.879, 248.471, 15.3785
43.91, 237.929, 15.0466
43.941, 298.809, 16.8877
43.972, 252.632, 15.4883
44.003, 264.43, 15.8578
44.034, 250.474, 15.4728
44.065, 255.962, 15.6631
44.096, 256.857, 15.7179
44.127, 248.203, 15.481
44.158, 246.1, 15.4402
44.189, 254.471, 15.6898
44.22, 237.51, 15.1726
44.251, 246.158, 15.4744
44.282, 240.188, 15.2814
44.313, 273.727, 16.3275
44.344, 353.692, 18.5615
44.375, 563.993, 23.4135
44.406, 617.091, 24.5021
44.437, 424.124, 20.3319
44.468, 288.898, 16.7617
44.499, 286.41, 16.702
44.53, 289.751, 16.8112
44.561, 327.648, 17.8725
44.592, 335.187, 18.0961
44.623, 361.293, 18.7802
44.654, 458.469, 21.1665
44.685, 408.758, 19.9423
44.716, 326.456, 17.8607
44.747, 291.807, 16.8456
44.778, 248.472, 15.5585
44.809, 247.418, 15.5536
44.84, 247.923, 15.5241
44.871, 238.088, 15.2406
44.902, 241.164, 15.3435
44.933, 239.605, 15.2753
44.964, 227.407, 14.8967
44.995, 248.625, 15.568
45.026, 233.299, 15.0581
45.057, 213.815, 14.4471
45.088, 252.982, 15.6878
45.119, 239.269, 15.285
45.15, 231.869, 15.0602
45.181, 249.02, 15.5927
45.212, 227.502, 14.9029
45.243, 234.104, 15.11
45.274, 211.602, 14.3633
45.305, 234.946, 15.1329
45.336, 242.657, 15.3763
45.367, 255.44, 15.7796
45.398, 238.109, 15.242
45.429, 238.797, 15.2238
45.46, 220.868, 14.6583
45.491, 220.391, 14.659
45.522, 210.949, 14.319
45.553, 258.447, 15.8448
45.584, 249.111, 15.568
45.615, 229.491, 14.9373
45.646, 270.407, 16.2455
45.677, 275.492, 16.3746
45.708, 251.787, 15.6741
45.739, 266.031, 16.1289
45.77, 281.983, 16.5855
45.801, 305.955, 17.264
45.832, 305.393, 17.2599
45.863, 281.096, 16.562
45.894, 208.169, 14.229
45.925, 254.615, 15.7588
45.956, 213.788, 14.4453
45.987, 231.84, 14.9951
46.018, 249.933, 15.5889
46.049, 230.523, 15.0045
46.08, 227.976, 14.902
46.111, 246.409, 15.4902
46.142, 236.969, 15.2002
46.173, 209.358, 14.2769
46.204, 233.357, 15.0933
46.235, 209.003, 14.286
46.266, 223.838, 14.7904
46.297, 226.002, 14.8365
46.328, 239.769, 15.2857
46.359, 209.643, 14.2964
46.39, 233.603, 15.0777
46.421, 252.545, 15.6909
46.452, 198.788, 13.9169
46.483, 215.857, 14.4862
46.514, 224.842, 14.7922
46.545, 226.22, 14.8508
46.576, 231.151, 14.982
46.607, 252.2, 15.6695
46.638, 268.978, 16.1889
46.669, 304.881, 17.2035
46.7, 347.744, 18.4021
46.731, 332.486, 18.0029
46.762, 254.271, 15.7375
46.793, 212.971, 14.4231
46.824, 240.114, 15.3077
46.855, 272.152, 16.2917
46.886, 317.515, 17.6105
46.917, 341.929, 18.2745
46.948, 316.358, 17.5463
46.979, 326.56, 17.8397
47.01, 314.637, 17.532
47.041, 354.913, 18.6256
47.072, 311.831, 17.4298
47.103, 279.001, 16.4959
47.134, 240.239, 15.3157
47.165, 244.516, 15.4323
47.196, 238.042, 15.2377
47.227, 232.383, 15.0618
47.258, 235.843, 15.1592
47.289, 222.672, 14.7456
47.32, 245.46, 15.4919
47.351, 247.91, 15.5845
47.382, 296.424, 17.0272
47.413, 313.189, 17.5057
47.444, 321.554, 17.7257
47.475, 295.58, 16.9787
47.506, 247.737, 15.5737
47.537, 234.353, 15.1261
47.568, 240.391, 15.3254
47.599, 185.397, 13.4491
47.63, 232.97, 15.0368
47.661, 216.998, 14.5628
47.692, 216.108, 14.503
47.723, 249.096, 15.567
47.754, 201.299, 14.0241
47.785, 257.521, 15.8478
47.816, 223.79, 14.7872
47.847, 203.836, 14.0986
47.878, 199.828, 13.9897
47.909, 213.529, 14.4278
47.94, 194.86, 13.7777
47.971, 229.3, 14.9885
48.002, 219.784, 14.651
48.033, 233.276, 15.088
48.064, 205.274, 14.1641
48.095, 222.495, 14.7338
48.126, 216.766, 14.5472
48.157, 216.115, 14.5363
48.188, 218.256, 14.6143
48.219, 201.07, 14.0082
48.25, 205.365, 14.1705
48.281, 176.784, 13.1394
48.312, 227.401, 14.8963
48.343, 223.088, 14.7408
48.374, 210.937, 14.3513
48.405, 222.501, 14.702
48.436, 172.585, 12.9715
48.467, 211.101, 14.3625
48.498, 217.449, 14.5603
48.529, 207.487, 14.2492
48.56, 223.709, 14.8142
48.591, 222.522, 14.7357
48.622, 200.386, 13.9945
48.653, 211.119, 14.3637
48.684, 240.918, 15.3278
48.715, 218.437, 14.5937
48.746, 202.438, 14.0694
48.777, 212.138, 14.3997
48.808, 214.432, 14.4558
48.839, 239.148, 15.2772
48.87, 219.261, 14.6162
48.901, 215.585, 14.5006
48.932, 200.042, 13.9705
48.963, 242.331, 15.3866
48.994, 269.93, 16.2462
49.025, 226.784, 14.8878
49.056, 225.98, 14.8351
49.087, 278.803, 16.4842
49.118, 320.938, 17.6917
49.149, 273.233, 16.3271
49.18, 252.259, 15.6731
49.211, 249.973, 15.6218
49.242, 266.85, 16.1489
49.273, 248.612, 15.5672
49.304, 267.077, 16.1331
49.335, 218.61, 14.6053
49.366, 219.988, 14.6322
49.397, 199.903, 13.9608
49.428, 243.378, 15.4221
49.459, 235.982, 15.1682
49.49, 197.879, 13.8873
49.521, 224.785, 14.8206
49.552, 218.815, 14.619
49.583, 236.28, 15.1873
49.614, 213.825, 14.4478
49.645, 214.676, 14.4723
49.676, 238.769, 15.253
49.707, 231.25, 15.02
49.738, 256.738, 15.8296
49.769, 272.781, 16.3293
49.8, 258.174, 15.858
49.831, 231.435, 15.0004
49.862, 204.65, 14.1211
49.893, 217.883, 14.5893
49.924, 211.925, 14.3522
49.955, 210.496, 14.3213
49.986, 212.154, 14.4008
50.017, 211.736, 14.3725
50.048, 214.912, 14.4882
50.079, 233.951, 15.1317
50.11, 208.427, 14.2466
50.141, 235.097, 15.1426
50.172, 259.742, 15.9242
50.203, 226.628, 14.8776
50.234, 219.636, 14.6088
50.265, 226.008, 14.8369
50.296, 225, 14.8348
50.327, 241.246, 15.3177
50.358, 243.208, 15.4113
50.389, 305.623, 17.2728
50.42, 303.346, 17.1992
50.451, 315.767, 17.5405
50.482, 267.057, 16.1614
50.513, 265.243, 16.0516
50.544, 227.66, 14.8813
50.575, 201.777, 14.0234
50.606, 234.171, 15.1144
50.637, 228.102, 14.9422
50.668, 241.869, 15.3573
50.699, 249.576, 15.597
50.73, 244.332, 15.4515
50.761, 237.98, 15.2338
50.792, 225.976, 14.8348
50.823, 240.331, 15.2905
50.854, 212.042, 14.3932
50.885, 213.652, 14.4361
50.916, 212.365, 14.382
50.947, 203.795, 14.0957
50.978, 190.593, 13.6128
51.009, 218.963, 14.5963
51.04, 223.687, 14.7483
51.071, 236.713, 15.1838
51.102, 239.581, 15.2737
51.133, 207.89, 14.2433
51.164, 216.33, 14.5179
51.195, 210.857, 14.3459
51.226, 200.068, 13.9723
51.257, 199.957, 14.0332
51.288, 224.403, 14.7955
51.319, 225.872, 14.86
51.35, 198.538, 13.9336
51.381, 215.472, 14.4931
51.412, 228.072, 14.9083
51.443, 198.464, 13.9284
51.474, 236.44, 15.1663
51.505, 210.388, 14.3139
51.536, 211.081, 14.3611
51.567, 208.421, 14.2463
51.598, 232.523, 15.0709
51.629, 199.216, 13.9468
51.66, 224.139, 14.778
51.691, 210.762, 14.3394
51.722, 216.725, 14.5445
51.753, 234.499, 15.1355
51.784, 219.276, 14.6498
51.815, 207.524, 14.2517
51.846, 239.541, 15.3023
51.877, 221.575, 14.7052
51.908, 233.998, 15.1347
51.939, 229.985, 14.9695
51.97, 270.646, 16.2599
52.001, 264.732, 16.0797
52.032, 227.007, 14.8705
52.063, 202.183, 14.0516
52.094, 207.132, 14.2247
52.125, 230.593, 14.9773
52.156, 201.212, 14.018
52.187, 214.33, 14.4819
52.218, 198.586, 13.937
52.249, 214.35, 14.4833
52.28, 215.516, 14.5289
52.311, 221.151, 14.6771
52.342, 234.374, 15.1274
52.373, 235.373, 15.1604
52.404, 195.334, 13.8112
52.435, 232.119, 15.0447
52.466, 214.637, 14.4697
52.497, 203.146, 14.0846
52.528, 223.186, 14.7473
52.559, 222.408, 14.7281
52.59, 223.572, 14.7728
52.621, 222.504, 14.7344
52.652, 250.805, 15.6433
52.683, 245.429, 15.4899
52.714, 244.827, 15.4519
52.745, 243.005, 15.3984
52.776, 254.254, 15.7667
52.807, 252.881, 15.7118
52.838, 274.311, 16.4209
52.869, 251.407, 15.6809
52.9, 233.078, 15.0438
52.931, 204.889, 14.104
52.962, 232.523, 15.0079
52.993, 277.517, 16.3511
53.024, 243.839, 15.3286
53.055, 264.344, 15.9389
53.086, 251.288, 15.4936
53.117, 293.486, 16.7756
53.148, 294.52, 16.8073
53.179, 270.838, 16.0696
53.21, 248.541, 15.4124
53.241, 223.376, 14.6013
53.272, 218.011, 14.4687
53.303, 227.665, 14.7872
53.334, 245.359, 15.3635
53.365, 223.944, 14.6698
53.396, 240.394, 15.233
53.427, 224.378, 14.6982
53.458, 219.48, 14.5662
53.489, 237.891, 15.1047
53.52, 241.99, 15.3034
53.551, 227.707, 14.8212
53.582, 237.856, 15.133
53.613, 234.195, 15.0223
53.644, 179.45, 13.157
53.675, 223.782, 14.6592
53.706, 248.591, 15.4452
53.737, 250.234, 15.5174
53.768, 237.656, 15.0898
53.799, 229.579, 14.849
53.83, 243.395, 15.3007
53.861, 259.414, 15.7859
53.892, 315.662, 17.454
53.923, 347.819, 18.3038
53.954, 279.958, 16.3816
53.985, 261.355, 15.8454
54.016, 223.928, 14.6688
54.047, 233.213, 14.9286
54.078, 223.427, 14.6359
54.109, 189.896, 13.4943
54.14, 219.582, 14.5092
54.171, 212.617, 14.2687
54.202, 202.954, 13.9708
54.233, 190.965, 13.5023
54.264, 196.574, 13.7283
54.295, 204.242, 13.9933
54.326, 209.231, 14.1698
54.357, 231.955, 14.9402
54.388, 215.933, 14.4265
54.419, 222.351, 14.6283
54.45, 204.386, 14.0362
54.481, 208.545, 14.2215
54.512, 225.108, 14.7778
54.543, 181.818, 13.2949
54.574, 197.436, 13.8562
54.605, 236.352, 15.1919
54.636, 191.844, 13.6674
54.667, 193.96, 13.7485
54.698, 191.639, 13.6875
54.729, 220.067, 14.6374
54.76, 213.979, 14.4582
54.791, 211.99, 14.3897
54.822, 223.253, 14.7517
54.853, 215.437, 14.4907
54.884, 283.228, 16.6299
54.915, 245.533, 15.4965
54.946, 227.065, 14.9063
54.977, 245.332, 15.4838
55.008, 210.868, 14.3466
55.039, 218.621, 14.606
55.07, 191.377, 13.6688
55.101, 194.418, 13.7464
55.132, 217.852, 14.5873
55.163, 239.249, 15.2837
55.194, 265.043, 16.069
55.225, 264.185, 16.0465
55.256, 237.12, 15.2099
55.287, 221.815, 14.6889
55.318, 226.977, 14.8685
55.349, 204, 14.1099
55.38, 207.936, 14.2464
55.411, 196.629, 13.8681
55.442, 190.808, 13.6631
55.473, 230.875, 14.9956
55.504, 204.27, 14.1285
55.535, 206.933, 14.2111
55.566, 191.938, 13.674
55.597, 228.074, 14.9084
55.628, 259.848, 15.9308
55.659, 222.083, 14.7066
55.69, 244.555, 15.4347
55.721, 255.008, 15.7831
55.752, 224.837, 14.7919
55.783, 218.277, 14.583
55.814, 239.269, 15.285
55.845, 227.512, 14.8717
55.876, 221.603, 14.7071
55.907, 187.816, 13.5184
55.938, 228.567, 14.9406
55.969, 239.394, 15.2619
56.0, 261.445, 15.9687
56.031, 254.275, 15.768
56.062, 228.615, 14.9119
56.093, 214.584, 14.4661
56.124, 187.78, 13.5157
56.155, 197.834, 13.8842
56.186, 237.084, 15.1764
56.217, 214.008, 14.4601
56.248, 246.753, 15.5118
56.279, 249.875, 15.5853
56.31, 234.151, 15.1131
56.341, 251.775, 15.643
56.372, 207.319, 14.2042
56.403, 243.444, 15.4262
56.434, 203.821, 14.0639
56.465, 193.502, 13.7506
56.496, 204.087, 14.1159
56.527, 195.102, 13.7948
56.558, 185.572, 13.4619
56.589, 239.208, 15.2811
56.62, 179.826, 13.2561
56.651, 216.333, 14.5509
56.682, 197.712, 13.9099
56.713, 187.261, 13.5134
56.744, 193.371, 13.7413
56.775, 212.39, 14.4168
56.806, 180.567, 13.2747
56.837, 199.114, 13.9397
56.868, 235.248, 15.1523
56.899, 202.68, 14.0522
56.93, 210.955, 14.3526
56.961, 210.601, 14.3284
56.992, 205.43, 14.1413
57.023, 198.936, 13.9273
57.054, 209.119, 14.294
57.085, 209.408, 14.3472
57.116, 198.572, 13.9018
57.147, 194.047, 13.7546
57.178, 193.627, 13.7595
57.209, 181.842, 13.3324
57.24, 209.362, 14.3105
57.271, 216.581, 14.5676
57.302, 187.916, 13.5607
57.333, 200.311, 13.9893
57.364, 184.468, 13.4528
57.395, 192.413, 13.7079
57.426, 212.988, 14.4242
57.457, 187.845, 13.5556
57.488, 176.649, 13.1294
57.519, 191.382, 13.6691
57.55, 190.372, 13.6319
57.581, 192.866, 13.7054
57.612, 188.302, 13.5533
57.643, 222.754, 14.751
57.674, 192.204, 13.693
57.705, 181.316, 13.2939
57.736, 203.56, 14.1133
57.767, 206.596, 14.188
57.798, 216.799, 14.5494
57.829, 228.959, 14.9662
57.86, 208.329, 14.2734
57.891, 194.22, 13.8016
57.922, 201.59, 14.0444
57.953, 201.198, 14.0171
57.984, 229.145, 14.9784
58.015, 198.777, 13.9504
58.046, 216.618, 14.5372
58.077, 192.82, 13.7368
58.108, 200.669, 14.0143
58.139, 207.694, 14.2299
58.17, 205.927, 14.1755
58.201, 211.079, 14.361
58.232, 221.394, 14.6932
58.263, 184.689, 13.4332
58.294, 212.382, 14.4163
58.325, 184.213, 13.3986
58.356, 200.297, 13.9883
58.387, 217.473, 14.5946
58.418, 196.635, 13.8686
58.449, 223.635, 14.8093
58.48, 197.07, 13.9339
58.511, 184.435, 13.4504
58.542, 198.525, 13.9327
58.573, 217.816, 14.6177
58.604, 201.761, 14.0563
58.635, 189.597, 13.6113
58.666, 214.814, 14.5146
58.697, 198.19, 13.9436
58.728, 218.407, 14.5917
58.759, 219.521, 14.6662
58.79, 223.958, 14.7983
58.821, 198.443, 13.9269
58.852, 216.045, 14.5316
58.883, 184.452, 13.416
58.914, 179.641, 13.2424
58.945, 220.518, 14.7
58.976, 218.36, 14.5886
59.007, 217.122, 14.5711
59.038, 195.984, 13.8572
59.069, 191.92, 13.7076
59.1, 194.685, 13.7999
59.131, 190.693, 13.69
59.162, 209.734, 14.3696
59.193, 209.553, 14.3236
59.224, 213.575, 14.464
59.255, 204.091, 14.1162
59.286, 193.219, 13.7304
59.317, 219.435, 14.6604
59.348, 188.105, 13.5744
59.379, 192.401, 13.707
59.41, 215.761, 14.5125
59.441, 182.625, 13.354
59.472, 181.45, 13.3036
59.503, 208.698, 14.2986
59.534, 196.486, 13.858
59.565, 207.836, 14.2396
59.596, 207.803, 14.2373
59.627, 197.453, 13.8917
59.658, 205.082, 14.1509
59.689, 207.961, 14.2481
59.72, 200.946, 14.0336
59.751, 200.368, 14.0275
59.782, 205.236, 14.1615
59.813, 189.226, 13.6198
59.844, 173.738, 13.0214
59.875, 178.163, 13.2055
59.906, 209.535, 14.3224
59.937, 220.556, 14.6699
59.968, 189.305, 13.5903
59.999, 190.843, 13.6656
60.03, 186.447, 13.4899
60.061, 221.551, 14.7036
60.092, 176.282, 13.1384
60.123, 190.018, 13.6065
60.154, 193.268, 13.7339
60.185, 216.185, 14.541
60.216, 190.728, 13.6574
60.247, 216.87, 14.5542
60.278, 195.556, 13.8269
60.309, 209.582, 14.2922
60.34, 186.423, 13.4881
60.371, 189.902, 13.6332
60.402, 192.084, 13.7193
60.433, 204.802, 14.1653
60.464, 159.757, 12.5124
60.495, 208.987, 14.2849
60.526, 206.772, 14.2337
60.557, 202.173, 14.085
60.588, 219.767, 14.6499
60.619, 208.911, 14.2797
60.65, 203.487, 14.1082
60.681, 196.259, 13.842
60.712, 168.606, 12.8553
60.743, 189.641, 13.6144
60.774, 205.682, 14.1587
60.805, 201.2, 14.0172
60.836, 202.235, 14.0553
60.867, 192.032, 13.6807
60.898, 191.484, 13.6764
60.929, 196.457, 13.856
60.96, 179.144, 13.3148
60.991, 199.104, 13.9391
61.022, 206.297, 14.201
61.053, 228.857, 14.9596
61.084, 208.347, 14.2746
61.115, 243.962, 15.459
61.146, 217.7, 14.6099
61.177, 219.726, 14.6472
61.208, 192.917, 13.7437
61.239, 199.814, 13.9887
61.27, 175.239, 13.0971
61.301, 197.567, 13.8997
61.332, 224.309, 14.8215
61.363, 176.833, 13.143
61.394, 188.031, 13.569
61.425, 201.332, 14.0606
61.456, 199.032, 13.934
61.487, 207.397, 14.2095
61.518, 180.191, 13.283
61.549, 211.352, 14.3796
61.58, 184.534, 13.4219
61.611, 189.725, 13.6205
61.642, 205.319, 14.1337
61.673, 195.089, 13.7938
61.704, 193.478, 13.7837
61.735, 206.987, 14.2485
61.766, 179.554, 13.2721
61.797, 180.546, 13.3091
61.828, 211.226, 14.3378
61.859, 201.632, 14.0473
61.89, 201.248, 14.0547
61.921, 219.803, 14.6523
61.952, 200.337, 13.9911
61.983, 192.008, 13.7138
62.014, 221.898, 14.7266
62.045, 207.034, 14.218
62.076, 202.338, 14.0624
62.107, 208.275, 14.2697
62.138, 177.895, 13.1856
62.169, 191.707, 13.6924
62.2, 211.891, 14.383
62.231, 219.268, 14.6166
62.262, 173.602, 13.0479
62.293, 171.19, 12.9399
62.324, 188.882, 13.5951
62.355, 215.103, 14.5011
62.386, 179.517, 13.2333
62.417, 178.434, 13.1893
62.448, 190.909, 13.6703
62.479, 170.586, 12.9312
62.51, 192.061, 13.7176
62.541, 188.131, 13.5762
62.572, 204.61, 14.1521
62.603, 164.825, 12.7157
62.634, 208.716, 14.2998
62.665, 203.49, 14.1084
62.696, 189.999, 13.6402
62.727, 202.63, 14.0827
62.758, 189.418, 13.5985
62.789, 182.757, 13.3636
62.82, 211.602, 14.3633
62.851, 194.207, 13.7315
62.882, 183.169, 13.3226
62.913, 173.568, 12.9723
62.944, 165.73, 12.636
62.975, 191.012, 13.5736
63.006, 196.134, 13.7311
63.037, 177.719, 13.0653
63.068, 213.699, 14.3414
63.099, 195.931, 13.7169
63.13, 198.449, 13.7921
63.161, 181.501, 13.2364
63.192, 196.988, 13.7572
63.223, 198.068, 13.8326
63.254, 190.911, 13.5665
63.285, 170.494, 12.8506
63.316, 170.07, 12.8921
63.347, 193.786, 13.6676
63.378, 190.901, 13.5658
63.409, 180.64, 13.2088
63.44, 152.044, 12.0953
63.471, 169.951, 12.8097
63.502, 197.792, 13.8133
63.533, 194.051, 13.6524
63.564, 159.647, 12.3903
63.595, 167.62, 12.7064
63.626, 170.742, 12.7968
63.657, 178.049, 13.0895
63.688, 173.319, 12.9176
63.719, 177.592, 13.0559
63.75, 187.378, 13.4174
63.781, 170.143, 12.7879
63.812, 173.295, 12.8801
63.843, 181.027, 13.2018
63.874, 192.967, 13.6098
63.905, 195.301, 13.7064
63.936, 175.253, 12.9897
63.967, 209.984, 14.2208
63.998, 159.555, 12.3831
64.029, 193.881, 13.6743
64.06, 182.14, 13.283
64.091, 177.204, 13.0984
64.122, 187.713, 13.5109
64.153, 192.838, 13.7034
64.184, 163.733, 12.6315
64.215, 164.302, 12.6379
64.246, 202.884, 14.1003
64.277, 216.411, 14.5562
64.308, 174.327, 13.029
64.339, 186.155, 13.5041
64.37, 160.887, 12.5243
64.401, 200.832, 14.0256
64.432, 185.083, 13.4619
64.463, 177.795, 13.1781
64.494, 171.888, 12.9926
64.525, 180.782, 13.3266
64.556, 157.185, 12.3872
64.587, 181.911, 13.3374
64.618, 173.003, 13.0398
64.649, 186.384, 13.5208
64.68, 167.325, 12.8324
64.711, 174.274, 13.0984
64.742, 180.54, 13.3087
64.773, 163.435, 12.6842
64.804, 177.902, 13.2225
64.835, 191.436, 13.708
64.866, 197.921, 13.9246
64.897, 167.383, 12.8369
64.928, 181.752, 13.3618
64.959, 173.013, 13.0405
64.99, 172.985, 13.0384
65.021, 173.364, 13.067
65.052, 168.009, 12.8471
65.083, 165.856, 12.7574
65.114, 165.181, 12.7432
65.145, 173.105, 13.0474
65.176, 184.911, 13.4851
65.207, 157.452, 12.447
65.238, 152.315, 12.2335
65.269, 172.148, 13.0124
65.3, 179.063, 13.2722
65.331, 170.762, 12.9446
65.362, 186.009, 13.5292
65.393, 179.46, 13.3015
65.424, 168.825, 12.9095
65.455, 169.399, 12.9157
65.486, 176.805, 13.2142
65.517, 188.747, 13.6207
65.548, 160.857, 12.5985
65.579, 186.13, 13.538
65.61, 177.198, 13.2067
65.641, 187.014, 13.5665
65.672, 185.13, 13.5011
65.703, 185.561, 13.4966
65.734, 189.75, 13.6576
65.765, 163.205, 12.6664
65.796, 196.283, 13.8783
65.827, 177.186, 13.2058
65.858, 179.035, 13.2701
65.889, 192.802, 13.7706
65.92, 175.144, 13.1267
65.951, 192.192, 13.7622
65.982, 187.256, 13.584
66.013, 169.506, 12.9239
66.044, 163.682, 12.7034
66.075, 167.011, 12.8084
66.106, 195.729, 13.8738
66.137, 205.546, 14.2168
66.168, 180.201, 13.32
66.199, 176.921, 13.186
66.23, 184.084, 13.4606
66.261, 165.628, 12.7399
66.292, 142.419, 11.8266
66.323, 172.125, 13.0106
66.354, 160.972, 12.5691
66.385, 181.635, 13.3532
66.416, 174.251, 13.0966
66.447, 184.594, 13.462
66.478, 192.322, 13.7363
66.509, 166.163, 12.781
66.54, 167.84, 12.8343
66.571, 176.804, 13.1773
66.602, 195.627, 13.8666
66.633, 181.315, 13.3658
66.664, 176.193, 13.1684
66.695, 166.462, 12.8039
66.726, 178.685, 13.3175
66.757, 184.551, 13.4589
66.788, 195.996, 13.8928
66.819, 167.309, 12.8312
66.85, 194.696, 13.8354
66.881, 158.318, 12.4764
66.912, 165.917, 12.8
66.943, 185.359, 13.4819
66.974, 173.948, 13.0739
67.005, 161.476, 12.6084
67.036, 164.028, 12.6921
67.067, 156.665, 12.4236
67.098, 165.526, 12.7698
67.129, 184.888, 13.4834
67.16, 192.404, 13.7773
67.191, 165.359, 12.7569
67.222, 159.591, 12.5379
67.253, 165.226, 12.7467
67.284, 181.865, 13.3701
67.315, 165.626, 12.7396
67.346, 158.629, 12.501
67.377, 152.517, 12.2497
67.408, 207.856, 14.3083
67.439, 181.77, 13.3631
67.47, 149.441, 12.1607
67.501, 170.965, 12.96
67.532, 170.517, 12.9633
67.563, 171.575, 13.0063
67.594, 153.784, 12.3119
67.625, 168.506, 12.8852
67.656, 167.918, 12.8779
67.687, 171.574, 13.0061
67.718, 171.795, 12.9856
67.749, 165.593, 12.775
67.78, 165.586, 12.7744
67.811, 163.398, 12.6814
67.842, 153.051, 12.2927
67.873, 157.956, 12.4479
67.904, 182.251, 13.3985
67.935, 177.477, 13.2275
67.966, 159.481, 12.5293
67.997, 167.385, 12.837
68.028, 178.051, 13.2335
68.059, 156.713, 12.4274
68.09, 161.951, 12.6455
68.121, 163.123, 12.6984
68.152, 163.476, 12.6874
68.183, 161.76, 12.6305
68.214, 180.768, 13.3619
68.245, 182.643, 13.4272
68.276, 152.645, 12.2601
68.307, 174.882, 13.1441
68.338, 160.102, 12.5394
68.369, 144.785, 11.941
68.4, 153.266, 12.3099
68.431, 180.26, 13.3243
68.462, 169.521, 12.9251
68.493, 166.83, 12.8322
68.524, 145.499, 11.9593
68.555, 142.111, 11.842
68.586, 149.164, 12.1381
68.617, 167.344, 12.8339
68.648, 157.412, 12.4438
68.679, 170.712, 12.9782
68.71, 158.866, 12.5197
68.741, 167.3, 12.8684
68.772, 161.287, 12.6322
68.803, 169.566, 12.9285
68.834, 162.867, 12.6784
68.865, 149.253, 12.1454
68.896, 162.503, 12.6501
68.927, 167.893, 12.876
68.958, 143.355, 11.9044
68.989, 152.673, 12.2623
69.02, 159.681, 12.545
69.051, 156.849, 12.4382
69.082, 163.425, 12.6835
69.113, 158.824, 12.5163
69.144, 158.003, 12.4905
69.175, 158.296, 12.5529
69.206, 145.461, 11.9968
69.237, 153.535, 12.3315
69.268, 129.539, 11.3173
69.299, 151.34, 12.2344
69.33, 136.556, 11.6238
69.361, 188.216, 13.6537
69.392, 150.917, 12.2403
69.423, 152.656, 12.3006
69.454, 159.785, 12.5921
69.485, 152.261, 12.2688
69.516, 143.735, 11.9359
69.547, 172.531, 13.0787
69.578, 164.952, 12.7636
69.609, 180.236, 13.3591
69.64, 169.798, 12.984
69.671, 150.143, 12.1775
69.702, 169.279, 12.9443
69.733, 183.554, 13.4943
69.764, 177.056, 13.2329
69.795, 164.275, 12.7494
69.826, 154.302, 12.3931
69.857, 178.468, 13.2645
69.888, 167.564, 12.8887
69.919, 145.785, 12.0235
69.95, 147.41, 12.0756
69.981, 149.608, 12.1742
70.0, 178.239, 13.2842