File: TGA-MS/DWTRTN.D/tic_front.csv
D:\GAILLARD\WALLACE_SAMUEL\DWTRTN.D  7 Sep 21   3:50 pm
Start of data points
0.0961,161598
0.183733,146549
0.271367,139363
0.359,138061
0.446617,140003
0.53425,140378
0.621883,142206
0.709517,145439
0.79715,146649
0.884783,147645
0.9724,148431
1.06003,149208
1.14767,150193
1.2353,148826
1.32293,84704
1.41055,52765
1.49818,34632
1.58582,34336
1.67345,33741
1.76108,32904
1.84872,33228
1.93633,32735
2.02397,32460
2.1116,32955
2.19923,32408
2.28687,33642
2.3745,660525
2.46212,36020
2.54975,35489
2.63738,33212
2.72502,32980
2.81265,33171
2.90027,33476
2.9879,32778
3.07553,32948
3.16317,32284
3.2508,32611
3.33843,2529251
3.42605,36349
3.51368,33864
3.60132,33272
3.68895,33042
3.77658,33337
3.86422,31747
3.95183,32410
4.03947,31957
4.1271,32205
4.21473,32989
4.30237,33994
4.38998,93635
4.47762,34989
4.56525,33827
4.65288,31639
4.74052,31674
4.82815,32264
4.91577,31996
5.0034,31127
5.09103,31669
5.17867,33166
5.2663,31833
5.35393,2922763
5.44155,35391
5.52918,34762
5.61682,32156
5.70445,31986
5.79208,31255
5.8797,31811
5.96733,32026
6.05497,31709
6.1426,31098
6.23023,31158
6.31787,58555
6.40548,40619
6.49312,34512
6.58075,32574
6.66838,31684
6.75602,32677
6.84363,32551
6.93127,31538
7.0189,32123
7.10653,31235
7.19417,31839
7.2818,32653
7.36942,881060
7.45705,34059
7.54468,33535
7.63232,32575
7.71995,32633
7.80758,32853
7.8952,31846
7.98283,31419
8.07047,31491
8.1581,32249
8.24573,30532
8.33335,1171395
8.42098,35599
8.50862,33921
8.59625,32318
8.68388,31945
8.77152,32337
8.85913,31541
8.94677,32342
9.0344,31139
9.12203,31093
9.20967,31444
9.2973,34906
9.38492,136534
9.47255,34200
9.56018,33341
9.64782,32412
9.73545,31802
9.82307,31762
9.9107,33014
9.99833,32497
10.086,31560
10.1736,31529
10.2612,32189
10.3489,2787808
10.4365,34532
10.5241,34224
10.6118,31453
10.6994,31622
10.787,32223
10.8746,31798
10.9623,32436
11.0499,31733
11.1375,32187
11.2252,32316
11.3128,34610
11.4004,44336
11.4881,33942
11.5757,33874
11.6633,32039
11.751,32092
11.8386,32071
11.9262,31947
12.0138,32151
12.1015,32484
12.1891,32333
12.2767,32286
12.3644,1359296
12.452,34517
12.5396,34039
12.6273,32088
12.7149,32093
12.8025,31690
12.8901,31809
12.9778,32178
13.0654,31773
13.153,32156
13.2407,30866
13.3283,414785
13.4159,36438
13.5036,34881
13.5912,32617
13.6788,32302
13.7664,33165
13.8541,32445
13.9417,31329
14.0293,32122
14.117,32130
14.2046,31808
14.2922,32964
14.3799,233593
14.4675,33876
14.5551,33842
14.6428,32361
14.7304,32067
14.818,31435
14.9056,31864
14.9933,32461
15.0809,32169
15.1685,31824
15.2562,32414
15.3438,2508783
15.4314,35128
15.5191,33820
15.6067,32283
15.6943,31573
15.7819,31605
15.8696,32456
15.9572,31740
16.0448,32130
16.1325,31905
16.2201,32296
16.3077,33354
16.3954,55563
16.483,33242
16.5706,34126
16.6582,32109
16.7459,31852
16.8335,31783
16.9211,31736
17.0088,32242
17.0964,31895
17.184,31668
17.2717,31476
17.3593,1985689
17.4469,34976
17.5345,33819
17.6222,31920
17.7098,32504
17.7974,32007
17.8851,31771
17.9727,32942
18.0603,31727
18.148,31202
18.2356,31609
18.3232,139322
18.4109,37799
18.4985,33477
18.5861,32339
18.6738,31602
18.7614,32168
18.849,31679
18.9366,32233
19.0243,32457
19.1119,31260
19.1995,31835
19.2872,32509
19.3748,421770
19.4624,34539
19.5501,33203
19.6377,32762
19.7253,31807
19.8129,31655
19.9006,32052
19.9882,32388
20.0758,31616
20.1635,32411
20.2511,31945
20.3387,1908280
20.4263,35230
20.514,34670
20.6016,32467
20.6892,31871
20.7769,31998
20.8645,31466
20.9521,32006
21.0398,32014
21.1274,32045
21.215,31657
21.3027,33391
21.3903,78191
21.4779,34025
21.5656,33959
21.6532,32016
21.7408,32443
21.8284,31897
21.9161,32437
22.0037,31613
22.0913,31636
22.179,31351
22.2666,31559
22.3542,2539155
22.4419,34266
22.5295,34618
22.6171,31995
22.7047,32768
22.7924,32516
22.88,32910
22.9676,32697
23.0553,32202
23.1429,31973
23.2305,31975
23.3182,52080
23.4058,41070
23.4934,33857
23.5811,32697
23.6687,32707
23.7563,31955
23.8439,31595
23.9316,31396
24.0192,32200
24.1068,31624
24.1945,31649
24.2821,31534
24.3697,832011
24.4574,34421
24.545,34630
24.6326,32075
24.7202,31975
24.8079,31701
24.8955,31883
24.9831,31053
25.0708,31353
25.1584,32124
25.246,31647
25.3337,1068741
25.4213,36275
25.5089,33716
25.5966,32084
25.6842,32278
25.7718,31495
25.8594,32225
25.9471,32203
26.0347,32125
26.1223,31915
26.21,31207
26.2976,33987
26.3852,134908
26.4729,34801
26.5605,33114
26.6481,32560
26.7357,32031
26.8234,32113
26.911,32405
26.9986,32054
27.0863,31868
27.1739,32061
27.2615,31505
27.3492,2810552
27.4368,34909
27.5244,33352
27.612,31555
27.6997,31641
27.7873,32105
27.8749,31488
27.9626,31309
28.0502,31409
28.1378,31916
28.2255,32668
28.3131,35835
28.4007,45180
28.4884,34108
28.576,33749
28.6636,32439
28.7512,32425
28.8389,31883
28.9265,31882
29.0141,32404
29.1018,31931
29.1894,33025
29.277,31787
29.3647,1484197
29.4523,34546
29.5399,34295
29.6275,31960
29.7152,31670
29.8028,31946
29.8904,31563
29.9781,31801
30.0657,31633
30.1533,32060
30.241,31946
30.3286,461762
30.4162,36815
30.5039,34430
30.5915,32619
30.6791,31725
30.7667,31390
30.8544,31978
30.942,31168
31.0296,31713
31.1173,31804
31.2049,31847
31.2925,32798
31.3802,266063
31.4678,33269
31.5554,34027
31.643,31660
31.7307,32518
31.8183,31512
31.9059,32296
31.9936,31781
32.0812,32479
32.1688,31994
32.2565,32109
32.3441,2698871
32.4317,35014
32.5194,33538
32.607,32185
32.6946,31567
32.7822,31908
32.8699,31176
32.9575,31155
33.0451,32126
33.1328,31653
33.2204,31667
33.308,32647
33.3957,59616
33.4833,34467
33.5709,33907
33.6585,31816
33.7462,32165
33.8338,32104
33.9214,32321
34.0091,31585
34.0967,31830
34.1843,31814
34.2719,31623
34.3596,2260744
34.4472,35215
34.5348,33903
34.6225,32117
34.7101,32193
34.7977,32207
34.8854,30766
34.973,31531
35.0606,31582
35.1483,31772
35.2359,31598
35.3235,152477
35.4111,37816
35.4988,34334
35.5864,32555
35.674,32067
35.7617,31402
35.8493,32487
35.9369,31860
36.0246,31363
36.1122,31477
36.1998,31859
36.2875,31889
36.3751,513561
36.4627,34416
36.5503,33300
36.638,31937
36.7256,32032
36.8132,32123
36.9009,31612
36.9885,32089
37.0761,30816
37.1638,32023
37.2514,31129
37.339,2105839
37.4267,35061
37.5143,33926
37.6019,32022
37.6895,32368
37.7772,31537
37.8648,32540
37.9524,31407
38.0401,31986
38.1277,31752
38.2153,31637
38.303,32815
38.3906,91831
38.4782,33901
38.5658,33899
38.6535,31354
38.7411,31982
38.8287,31884
38.9164,31256
39.004,30625
39.0916,31487
39.1793,31715
39.2669,31205
39.3545,2813893
39.4421,35455
39.5298,33787
39.6174,32062
39.705,31631
39.7927,31599
39.8803,30914
39.9679,31297
40.0556,31605
40.1432,30994
40.2308,32460
40.3184,50091
40.4061,41394
40.4937,33537
40.5813,33506
40.669,32216
40.7566,31761
40.8442,31405
40.9319,32081
41.0195,31378
41.1071,31403
41.1947,31407
41.2824,32127
41.37,1027892
41.4576,34627
41.5453,33881
41.6329,31255
41.7205,30981
41.8082,31597
41.8958,31682
41.9834,31648
42.0711,31771
42.1587,31362
42.2463,32038
42.334,1176025
42.4216,35266
42.5092,34345
42.5968,31939
42.6845,31841
42.7721,31969
42.8597,30888
42.9474,31279
43.035,31504
43.1226,31107
43.2103,31373
43.2979,33105
43.3855,161605
43.4731,34844
43.5608,34023
43.6484,31658
43.736,30768
43.8237,32428
43.9113,30224
43.9989,31519
44.0866,32017
44.1742,31534
44.2618,31269
44.3495,3044175
44.4371,34730
44.5247,34472
44.6123,31428
44.7,32495
44.7876,31614
44.8752,31310
44.9629,31231
45.0505,31096
45.1381,31779
45.2258,31355
45.3134,34762
45.401,47844
45.4886,34382
45.5763,33954
45.6639,31900
45.7515,30779
45.8392,31877
45.9268,31307
46.0144,31136
46.1021,31374
46.1897,31564
46.2773,30355
46.3649,1743960
46.4526,35322
46.5402,33446
46.6278,31397
46.7155,32003
46.8031,31255
46.8907,31313
46.9783,31732
47.066,31573
47.1536,31109
47.2413,30763
47.3289,481623
47.4165,36262
47.5041,34108
47.5918,32630
47.6794,32211
47.767,31533
47.8546,32036
47.9423,31499
48.0299,31366
48.1176,31304
48.2052,31962
48.2928,32156
48.3804,310337
48.4681,34250
48.5557,33760
48.6433,31608
48.731,31648
48.8186,31707
48.9062,31650
48.9939,31474
49.0815,31514
49.1691,31958
49.2568,31348
49.3444,2892398
49.432,35035
49.5196,33641
49.6073,31678
49.6949,31210
49.7825,31206
49.8702,31752
49.9578,31675
50.0454,32101
50.1331,30931
50.2207,32008
50.3083,33239
50.3959,65868
50.4836,34482
50.5712,32907
50.6588,32173
50.7465,31807
50.8341,31600
50.9217,30938
51.0094,32757
51.097,32044
51.1846,32098
51.2723,31885
51.3599,2585029
51.4475,33991
51.5351,33055
51.6228,31877
51.7104,31487
51.798,32278
51.8857,32052
51.9733,31307
52.0609,31239
52.1486,31829
52.2362,31151
52.3238,145662
52.4114,38931
52.4991,33915
52.5867,33091
52.6743,31045
52.762,31582
52.8496,31640
52.9372,31479
53.0249,31930
53.1125,32046
53.2001,31890
53.2877,31942
53.3754,614966
53.463,34128
53.5506,33908
53.6383,31709
53.7259,31558
53.8135,31480
53.9012,31755
53.9888,31723
54.0764,31703
54.1641,31787
54.2517,31512
54.3393,2321717
54.4269,35842
54.5146,33563
54.6022,32002
54.6898,31272
54.7775,31918
54.8651,31900
54.9527,31080
55.0404,31842
55.128,31682
55.2156,31329
55.3032,32432
55.3909,102231
55.4785,33598
55.5661,34016
55.6538,32229
55.7414,32666
55.829,30847
55.9167,31357
56.0043,31598
56.0919,31931
56.1796,31819
56.2672,31196
56.3548,3045823
56.4424,34617
56.5301,33385
56.6177,31256
56.7053,31458
56.793,31136
56.8806,31486
56.9682,31491
57.0559,31384
57.1435,31389
57.2311,31422
57.3187,53821
57.4064,41917
57.494,33746
57.5816,33575
57.6693,31098
57.7569,30988
57.8445,32430
57.9322,31319
58.0198,31492
58.1074,31294
58.1951,32155
58.2827,30945
58.3703,1202953
58.4579,34980
58.5456,33608
58.6332,32486
58.7208,31867
58.8085,31707
58.8961,32469
58.9837,31389
59.0714,30928
59.159,31246
59.2466,31486
59.3342,1316804
59.4219,35817
59.5095,34268
59.5971,31827
59.6848,31560
59.7724,30971
59.86,31754
59.9477,31280
60.0353,30871
60.1229,31306
60.2105,30996
60.2982,33060
60.3858,189851
60.4734,34306
60.5611,33886
60.6487,30575
60.7363,31673
60.824,31706
60.9116,31372
60.9992,31521
61.0869,31355
61.1745,32071
61.2621,31499
61.3497,3298964
61.4374,34068
61.525,33396
61.6126,32486
61.7003,32294
61.7879,31284
61.8755,31109
61.9632,31569
62.0508,30615
62.1384,31556
62.226,31067
62.3137,35087
62.4013,51132
62.4889,33642
62.5766,32899
62.6642,31518
62.7518,31657
62.8395,31229
62.9271,31803
63.0147,30957
63.1024,30924
63.19,31239
63.2776,30978
63.3652,2072946
63.4529,34366
63.5405,33602
63.6281,30852
63.7158,31103
63.8034,30446
63.891,31219
63.9787,30627
64.0663,30932
64.1539,30474
64.2415,31128
64.3292,551955
64.4168,36445
64.5044,33151
64.5921,31740
64.6797,31427
64.7673,31140
64.855,31101
64.9426,31072
65.0302,31352
65.1178,31057
65.2055,31398
65.2931,32176
65.3807,389095
65.4684,33867
65.556,32829
65.6436,31087
65.7313,31088
65.8189,31673
65.9065,30345
65.9942,31756
66.0818,31187
66.1694,30546
66.257,30817
66.3447,3269690
66.4323,35337
66.5199,32868
66.6076,31009
66.6952,31948
66.7828,30508
66.8705,31248
66.9581,31289
67.0457,31326
67.1333,30567
67.221,31085
67.3086,32293
67.3962,70876
67.4839,33583
67.5715,33196
67.6591,30988
67.7468,31091
67.8344,30234
67.922,30601
68.0096,30928
68.0973,31539
68.1849,31330
68.2725,30861
68.3602,3087469
68.4478,34677
68.5354,33035
68.6231,30816
68.7107,31481
68.7983,31119
68.8859,30181
68.9736,30313
69.0612,31327
69.1488,31101
69.2365,30432
69.3241,163668
69.4117,38571
69.4994,34176
69.587,31391
69.6746,30438
69.7622,30488
69.8499,30908
69.9375,30169
70.0251,30830
70.1128,30457
70.2004,31483
70.288,31434
70.3757,874118
70.4633,31937
70.5509,32970
70.6386,30913
70.7262,30195
70.8138,30670
70.9014,31183
70.9891,30499
71.0767,30523
71.1643,30874
71.252,30843
71.3396,2806386
71.4272,34201
71.5149,32423
71.6025,32144
71.6901,31184
71.7777,30991
71.8654,29852
71.953,31014
72.0406,30564
72.1283,31204
72.2159,31259
72.3035,33204
72.3912,127836
72.4788,33831
72.5664,31911
72.654,30301
72.7417,30682
72.8293,30273
72.917,30103
73.0046,30191
73.0922,30583
73.1798,31048
73.2675,30927
73.3551,4142376
73.4427,33719
73.5303,32598
73.618,31173
73.7056,31049
73.7933,31122
73.8809,30110
73.9685,30439
74.0561,30295
74.1438,30885
74.2314,30227
74.319,54223
74.4067,43518
74.4943,32612
74.5819,32483
74.6696,30777
74.7572,29844
74.8448,30341
74.9325,30611
75.0201,30458
75.1077,29507
75.1953,30431
75.283,30296
75.3706,2211350
75.4582,34047
75.5459,32838
75.6335,30644
75.7211,31357
75.8088,31204
75.8964,30333
75.984,30654
76.0716,30205
76.1593,29755
76.2469,30581
76.3345,1882189
76.4222,35178
76.5098,32092
76.5974,31520
76.6851,29844
76.7727,29612
76.8603,30397
76.948,30783
77.0356,30215
77.1232,30664
77.2108,30551
77.2985,31839
77.3861,343474
77.4737,33011
77.5614,32570
77.649,30581
77.7366,30691
77.8243,30590
77.9119,30634
77.9995,30988
78.0871,30656
78.1748,30226
78.2624,30282
78.35,5036260
78.4377,33316
78.5253,33431
78.6129,31634
78.7006,30421
78.7882,30402
78.8758,30425
78.9634,29995
79.0511,29768
79.1387,29997
79.2263,29812
79.314,34337
79.4016,59699
79.4892,33782
79.5769,31852
79.6645,30791
79.7521,30689
79.8398,30721
79.9274,29960
80.015,31564
80.1026,31632
80.1903,30089
80.2779,29953
80.3655,2922727
80.4532,32668
80.5408,32770
80.6284,30218
80.7161,30878
80.8037,30351
80.8913,30079
80.9789,30106
81.0666,30496
81.1542,30213
81.2418,31176
81.3295,585912
81.4171,35902
81.5047,32506
81.5924,31173
81.68,30986
81.7676,29868
81.8552,29923
81.9429,30479
82.0305,30592
82.1181,30166
82.2058,29982
82.2934,31789
82.381,454403
82.4687,32813
82.5563,32692
82.6439,29968
82.7315,30440
82.8192,30235
82.9068,30294
82.9944,30357
83.0821,30556
83.1697,31013
83.2573,30271
83.345,3335455
83.4326,33399
83.5202,32027
83.6078,30116
83.6955,30318
83.7831,30800
83.8708,29967
83.9584,31192
84.046,30359
84.1336,30122
84.2213,31037
84.3089,32150
84.3965,74880
84.4842,33536
84.5718,32442
84.6594,30620
84.7471,29910
84.8347,29224
84.9223,29726
85.0099,30242
85.0976,30196
85.1852,29738
85.2728,30512
85.3605,3052026
85.4481,32817
85.5357,32527
85.6234,30233
85.711,30132
85.7986,29729
85.8862,30125
85.9739,29899
86.0615,29940
86.1491,30047
86.2368,30280
86.3244,166240
86.412,38402
86.4997,33034
86.5873,31616
86.6749,30922
86.7626,30247
86.8502,30291
86.9378,30594
87.0254,30214
87.1131,30168
87.2007,30442
87.2883,30386
87.376,879967
87.4636,32667
87.5512,32841
87.6389,30360
87.7265,30430
87.8141,29246
87.9017,31226
87.9894,30773
88.077,29418
88.1646,30233
88.2523,30665
88.3399,2743157
88.4275,33784
88.5152,32393
88.6028,30605
88.6904,30408
88.7781,30614
88.8657,29743
88.9533,30191
89.0409,30435
89.1286,29961
89.2162,29585
89.3038,32145
89.3915,129927
89.4791,32720
89.5667,31552
89.6544,29891
89.742,30118
89.8296,30536
89.9172,30848
90.0049,29795
90.0925,30378
90.1801,30263
90.2678,30261
90.3554,3591142
90.443,34080
90.5307,31892
90.6183,31412
90.7059,30231
90.7936,30289
90.8812,29504
90.9688,30041
91.0564,29985
91.1441,30578
91.2317,30871
91.3193,57417
91.407,43696
91.4946,32986
91.5822,31998
91.6699,30301
91.7575,30752
91.8451,30611
91.9327,30408
92.0204,30689
92.108,29846
92.1956,30067
92.2833,30003
92.3709,1730048
92.4585,32252
92.5462,32200
92.6338,30445
92.7214,29505
92.809,30779
92.8967,30652
92.9843,30390
93.0719,30928
93.1596,30730
93.2472,30586
93.3348,1674097
93.4224,34813
93.5101,32942
93.5977,30254
93.6854,30375
93.773,30102
93.8606,31054
93.9482,30472
94.0359,29661
94.1235,30023
94.2111,31085
94.2987,31583
94.3864,267270
94.474,32720
94.5617,31920
94.6493,30361
94.7369,30284
94.8245,30636
94.9122,30632
94.9998,30579
95.0874,29929
95.1751,30397
95.2627,29692
95.3503,3819578
95.438,34274
95.5256,32242
95.6132,29808
95.7009,30180
95.7885,30330
95.8761,29957
95.9637,30597
96.0514,30586
96.139,30380
96.2266,30187
96.3143,33464
96.4019,56268
96.4895,31895
96.5772,31857
96.6648,30492
96.7524,29752
96.84,30860
96.9277,30173
97.0153,30476
97.1029,30471
97.1906,30442
97.2782,29844
97.3658,2755853
97.4535,32957
97.5411,32418
97.6287,30253
97.7163,29475
97.804,29987
97.8916,30173
97.9792,29835
98.0669,29847
98.1545,29181
98.2421,30112
98.3298,657668
98.4174,36460
98.505,31964
98.5927,29841
98.6803,29615
98.7679,30359
98.8555,29478
98.9432,30068
99.0308,29272
99.1184,30364
99.2061,29565
99.2937,31243
99.3813,552334
99.469,32703
99.5566,31902
99.6442,29352
99.7318,29943
99.8195,29119
99.9071,30542
99.9947,30144
100.082,30089
100.17,29531
100.258,29898
100.345,3671987
100.433,33765
100.521,31602
100.608,30336
100.696,30065
100.783,30163
100.871,30627
100.959,30014
101.046,30070
101.134,29985
101.222,29520
101.309,31860
101.397,84952
101.484,33106
101.572,31714
101.66,29796
101.747,29825
101.835,29945
101.923,29936
102.01,29783
102.098,30163
102.185,29740
102.273,29374
102.361,29798
102.448,30254
102.536,29917
102.624,29336
102.711,29954
102.799,30605
102.887,29095
102.974,29399
103.062,30015
103.149,30162
103.237,29087
103.325,29657
103.412,30340
103.5,30420
103.588,29518
103.675,29084
103.763,29825
103.85,29757
103.938,29528
104.026,29825
104.113,30187
104.201,29832
104.289,29937
104.376,30154
104.464,29411
104.552,29516
104.639,29527
104.727,29884
104.814,28501
104.902,29414
104.99,30456
105.077,28898
105.165,30094
105.253,30531
105.34,29914
105.428,29517
105.515,29992
105.603,29224
105.691,29242
105.778,28934
105.866,30135
105.954,30447
106.041,29670
106.129,30031
106.216,30209
106.304,30514
106.392,29726
106.479,29997
106.567,29927
106.655,30157
106.742,30052
106.83,29894
106.918,29840
107.005,29783
107.093,30573
107.18,30231
107.268,30277
107.356,29491
107.443,30531
107.531,30012
107.619,30084
107.706,29842
107.794,30333
107.881,30718
107.969,30035
108.057,30625
108.144,30488
108.232,30915
108.32,30439
108.407,30521
108.495,30313
108.583,30555
108.67,30034
108.758,30369
108.845,29007
108.933,29881
109.021,30620
109.108,30463
109.196,29911
109.284,30338
109.371,30238
109.459,29934
109.546,30462
109.634,29703
109.722,29708
109.809,30123
109.897,29993
109.985,30808
110.072,30437
110.16,30207
110.247,30143
110.335,30183
110.423,31089
110.51,29995
110.598,30494
110.686,30097
110.773,30654
110.861,30078
110.949,29895
111.036,30510
111.124,30114
111.211,30066
111.299,30925
111.387,30314
111.474,30214
111.562,29865
111.65,29987
111.737,30320
111.825,30300
111.912,31020
112,30572
112.088,30270
112.175,30031
112.263,30663
112.351,30266
112.438,30533
112.526,31060
112.614,30760
112.701,30618
112.789,29634
112.876,30111
112.964,30266
113.052,29941
113.139,31005
113.227,30220
113.315,31241
113.402,31063
113.49,31347
113.577,30709
113.665,29938
113.753,30657
113.84,30923
113.928,31056
114.016,30757
114.103,31055
114.191,30517
114.278,30611
114.366,31032
114.454,30683
114.541,31654
114.629,30849
114.717,30509
114.804,30468
114.892,29591
114.98,30016
115.067,31047
115.155,30492
115.242,31071
115.33,30934
115.418,30604
115.505,30728
115.593,30856
115.681,31098
115.768,30024
115.856,30848
115.943,30727
116.031,30070
116.119,30764
116.206,30795
116.294,31213
116.382,29676
116.469,30922
116.557,31367
116.645,30981
116.732,30852
116.82,30988
116.907,31446
116.995,30348
117.083,31537
117.17,30872
117.258,31047
117.346,31114
117.433,30507
117.521,30742
117.608,30775
117.696,31932
117.784,30954
117.871,30537
117.959,30843
118.047,31161
118.134,31224
118.222,31457
118.309,31507
118.397,31585
118.485,30945
118.572,31540
118.66,31744
118.748,31607
118.835,31780
118.923,31143
119.011,31140
119.098,31426
119.186,31930
119.273,30412
119.361,31695
119.449,31191
119.536,31000
119.624,30881
119.712,31784
119.799,31536
119.887,31084
119.974,32263
120.062,31372
120.15,32119
120.237,30532
120.325,30357
120.413,31846
120.5,31048
120.588,31922
120.676,31430
120.763,31346
120.851,31249
120.938,30797
121.026,31572
121.114,31591
121.201,32005
121.289,30918
121.377,30778
121.464,31661
121.552,31854
121.639,31161
121.727,31364
121.815,30777
121.902,31323
121.99,31734
122.078,31512
122.165,31239
122.253,31126
122.34,32037
122.428,31450
122.516,31220
122.603,31439
122.691,31432
122.779,31643
122.866,31560
122.954,31218
123.042,31812
123.129,31030
123.217,31443
123.304,32080
123.392,32102
123.48,32452
123.567,31756
123.655,30849
123.743,30534
123.83,32219
123.918,32186
124.005,31946
124.093,31440
124.181,31929
124.268,31457
124.356,31303
124.444,31783
124.531,32025
124.619,31570
124.707,32006
124.794,32031
124.882,31336
124.969,32043
124.987,32650