File: XRD/DWTR_FL/coarse-washed.xyd
    4.000     5027
    4.075     5000
    4.150     5092
    4.225     4840
    4.300     4790
    4.375     4766
    4.450     4847
    4.525     4823
    4.600     4852
    4.675     4736
    4.750     4673
    4.825     4476
    4.900     4505
    4.975     4590
    5.050     4509
    5.125     4610
    5.200     4450
    5.275     4431
    5.350     4399
    5.425     4453
    5.500     4305
    5.575     4253
    5.650     4463
    5.725     4344
    5.800     4297
    5.875     4373
    5.950     4176
    6.025     4121
    6.100     4132
    6.175     4268
    6.250     4176
    6.325     4086
    6.400     4206
    6.475     4121
    6.550     4038
    6.625     3952
    6.700     3870
    6.775     3870
    6.850     3830
    6.925     3792
    7.000     3694
    7.075     3626
    7.150     3693
    7.225     3661
    7.300     3556
    7.375     3664
    7.450     3633
    7.525     3570
    7.600     3456
    7.675     3444
    7.750     3401
    7.825     3356
    7.900     3537
    7.975     3382
    8.050     3424
    8.125     3380
    8.200     3336
    8.275     3325
    8.350     3191
    8.425     3210
    8.500     3218
    8.575     3202
    8.650     3213
    8.725     3167
    8.800     3139
    8.875     3104
    8.950     3051
    9.025     3047
    9.100     3116
    9.175     3107
    9.250     3074
    9.325     2997
    9.400     3036
    9.475     3089
    9.550     3165
    9.625     3061
    9.700     2961
    9.775     3009
    9.850     2904
    9.925     2979
   10.000     3001
   10.075     2983
   10.150     3015
   10.225     2995
   10.300     3104
   10.375     3001
   10.450     3003
   10.525     2976
   10.600     2913
   10.675     3039
   10.750     3004
   10.825     2884
   10.900     2901
   10.975     2892
   11.050     2852
   11.125     2955
   11.200     2931
   11.275     2942
   11.350     2889
   11.425     2986
   11.500     2972
   11.575     2884
   11.650     2886
   11.725     2796
   11.800     2869
   11.875     2887
   11.950     2817
   12.025     2744
   12.100     2809
   12.175     2850
   12.250     2780
   12.325     2721
   12.400     2682
   12.475     2774
   12.550     2790
   12.625     2704
   12.700     2755
   12.775     2810
   12.850     2645
   12.925     2608
   13.000     2750
   13.075     2632
   13.150     2557
   13.225     2618
   13.300     2656
   13.375     2610
   13.450     2615
   13.525     2590
   13.600     2581
   13.675     2638
   13.750     2452
   13.825     2543
   13.900     2571
   13.975     2532
   14.050     2564
   14.125     2500
   14.200     2442
   14.275     2526
   14.350     2549
   14.425     2616
   14.500     2443
   14.575     2506
   14.650     2437
   14.725     2471
   14.800     2452
   14.875     2462
   14.950     2522
   15.025     2453
   15.100     2388
   15.175     2475
   15.250     2481
   15.325     2390
   15.400     2432
   15.475     2417
   15.550     2327
   15.625     2413
   15.700     2326
   15.775     2479
   15.850     2308
   15.925     2367
   16.000     2339
   16.075     2400
   16.150     2471
   16.225     2362
   16.300     2402
   16.375     2311
   16.450     2370
   16.525     2259
   16.600     2403
   16.675     2321
   16.750     2338
   16.825     2301
   16.900     2297
   16.975     2250
   17.050     2330
   17.125     2343
   17.200     2247
   17.275     2197
   17.350     2291
   17.425     2243
   17.500     2393
   17.575     2220
   17.650     2297
   17.725     2300
   17.800     2257
   17.875     2291
   17.950     2238
   18.025     2175
   18.100     2177
   18.175     2294
   18.250     2298
   18.325     2254
   18.400     2206
   18.475     2261
   18.550     2168
   18.625     2233
   18.700     2221
   18.775     2150
   18.850     2199
   18.925     2092
   19.000     2077
   19.075     2151
   19.150     2140
   19.225     2152
   19.300     2123
   19.375     2163
   19.450     2092
   19.525     2209
   19.600     2078
   19.675     2183
   19.750     2104
   19.825     2074
   19.900     2090
   19.975     2005
   20.050     2036
   20.125     1980
   20.200     2024
   20.275     1989
   20.350     2041
   20.425     2028
   20.500     1975
   20.575     1925
   20.650     1969
   20.725     1962
   20.800     2014
   20.875     1941
   20.950     1935
   21.025     1912
   21.100     1958
   21.175     1901
   21.250     1911
   21.325     1853
   21.400     1884
   21.475     1924
   21.550     1890
   21.625     1875
   21.700     1846
   21.775     1867
   21.850     1879
   21.925     1803
   22.000     1809
   22.075     1802
   22.150     1845
   22.225     1834
   22.300     1760
   22.375     1789
   22.450     1770
   22.525     1792
   22.600     1743
   22.675     1670
   22.750     1678
   22.825     1656
   22.900     1753
   22.975     1677
   23.050     1638
   23.125     1694
   23.200     1699
   23.275     1642
   23.350     1694
   23.425     1613
   23.500     1713
   23.575     1750
   23.650     1657
   23.725     1734
   23.800     1652
   23.875     1668
   23.950     1638
   24.025     1591
   24.100     1650
   24.175     1589
   24.250     1582
   24.325     1545
   24.400     1617
   24.475     1601
   24.550     1562
   24.625     1543
   24.700     1562
   24.775     1577
   24.850     1496
   24.925     1492
   25.000     1486
   25.075     1480
   25.150     1526
   25.225     1529
   25.300     1506
   25.375     1466
   25.450     1562
   25.525     1472
   25.600     1418
   25.675     1474
   25.750     1464
   25.825     1441
   25.900     1428
   25.975     1419
   26.050     1408
   26.125     1432
   26.200     1439
   26.275     1441
   26.350     1422
   26.425     1404
   26.500     1518
   26.575     1716
   26.650     1583
   26.725     1417
   26.800     1344
   26.875     1394
   26.950     1386
   27.025     1305
   27.100     1336
   27.175     1345
   27.250     1319
   27.325     1274
   27.400     1347
   27.475     1308
   27.550     1249
   27.625     1268
   27.700     1250
   27.775     1247
   27.850     1282
   27.925     1293
   28.000     1258
   28.075     1289
   28.150     1226
   28.225     1269
   28.300     1183
   28.375     1206
   28.450     1180
   28.525     1202
   28.600     1157
   28.675     1146
   28.750     1192
   28.825     1193
   28.900     1143
   28.975     1119
   29.050     1117
   29.125     1153
   29.200     1137
   29.275     1144
   29.350     1094
   29.425     1095
   29.500     1078
   29.575     1139
   29.650     1080
   29.725     1090
   29.800     1101
   29.875     1053
   29.950     1011
   30.025     1068
   30.100     1059
   30.175     1026
   30.250     1051
   30.325     1063
   30.400     1057
   30.475     1023
   30.550     1033
   30.625      985
   30.700     1011
   30.775     1028
   30.850     1001
   30.925      985
   31.000      981
   31.075      955
   31.150      948
   31.225      957
   31.300     1001
   31.375      991
   31.450      972
   31.525      955
   31.600      911
   31.675      960
   31.750      960
   31.825      894
   31.900     1007
   31.975      924
   32.050      896
   32.125      934
   32.200      907
   32.275      915
   32.350      966
   32.425      896
   32.500      884
   32.575      878
   32.650      892
   32.725      959
   32.800      910
   32.875      886
   32.950      871
   33.025      851
   33.100      850
   33.175      892
   33.250      905
   33.325      879
   33.400      865
   33.475      876
   33.550      838
   33.625      818
   33.700      869
   33.775      845
   33.850      867
   33.925      822
   34.000      846
   34.075      846
   34.150      836
   34.225      854
   34.300      826
   34.375      834
   34.450      842
   34.525      823
   34.600      873
   34.675      824
   34.750      845
   34.825      870
   34.900      843
   34.975      848
   35.050      831
   35.125      819
   35.200      790
   35.275      831
   35.350      732
   35.425      818
   35.500      793
   35.575      822
   35.650      806
   35.725      775
   35.800      776
   35.875      786
   35.950      792
   36.025      776
   36.100      816
   36.175      787
   36.250      806
   36.325      774
   36.400      821
   36.475      821
   36.550      756
   36.625      776
   36.700      785
   36.775      781
   36.850      740
   36.925      747
   37.000      769
   37.075      771
   37.150      786
   37.225      749
   37.300      750
   37.375      792
   37.450      770
   37.525      748
   37.600      787
   37.675      761
   37.750      804
   37.825      780
   37.900      805
   37.975      741
   38.050      764
   38.125      766
   38.200      750
   38.275      788
   38.350      752
   38.425      786
   38.500      753
   38.575      801
   38.650      795
   38.725      757
   38.800      733
   38.875      763
   38.950      786
   39.025      709
   39.100      780
   39.175      755
   39.250      718
   39.325      757
   39.400      784
   39.475      732
   39.550      749
   39.625      705
   39.700      771
   39.775      746
   39.850      754
   39.925      697
   40.000      718
   40.075      696
   40.150      709
   40.225      769
   40.300      721
   40.375      713
   40.450      739
   40.525      725
   40.600      744
   40.675      710
   40.750      722
   40.825      731
   40.900      703
   40.975      728
   41.050      688
   41.125      733
   41.200      712
   41.275      741
   41.350      687
   41.425      723
   41.500      728
   41.575      705
   41.650      703
   41.725      712
   41.800      732
   41.875      678
   41.950      684
   42.025      657
   42.100      679
   42.175      740
   42.250      704
   42.325      700
   42.400      663
   42.475      671
   42.550      653
   42.625      691
   42.700      652
   42.775      683
   42.850      684
   42.925      671
   43.000      671
   43.075      658
   43.150      706
   43.225      686
   43.300      669
   43.375      699
   43.450      681
   43.525      663
   43.600      687
   43.675      694
   43.750      715
   43.825      671
   43.900      663
   43.975      689
   44.050      696
   44.125      661
   44.200      644
   44.275      675
   44.350      737
   44.425      677
   44.500      688
   44.575      689
   44.650      656
   44.725      630
   44.800      645
   44.875      649
   44.950      658
   45.025      680
   45.100      690
   45.175      647
   45.250      656
   45.325      654
   45.400      677
   45.475      655
   45.550      674
   45.625      638
   45.700      670
   45.775      658
   45.850      604
   45.925      626
   46.000      596
   46.075      641
   46.150      641
   46.225      639
   46.300      630
   46.375      637
   46.450      651
   46.525      631
   46.600      618
   46.675      674
   46.750      651
   46.825      596
   46.900      582
   46.975      625
   47.050      655
   47.125      594
   47.200      581
   47.275      578
   47.350      613
   47.425      618
   47.500      570
   47.575      633
   47.650      604
   47.725      587
   47.800      589
   47.875      594
   47.950      567
   48.025      583
   48.100      599
   48.175      593
   48.250      617
   48.325      577
   48.400      604
   48.475      567
   48.550      590
   48.625      609
   48.700      555
   48.775      558
   48.850      591
   48.925      565
   49.000      555
   49.075      519
   49.150      585
   49.225      588
   49.300      560
   49.375      568
   49.450      549
   49.525      541
   49.600      584
   49.675      563
   49.750      526
   49.825      540
   49.900      562
   49.975      606
   50.050      597
   50.125      591
   50.200      567
   50.275      521
   50.350      554
   50.425      537
   50.500      525
   50.575      497
   50.650      530
   50.725      563
   50.800      522
   50.875      518
   50.950      550
   51.025      491
   51.100      517
   51.175      541
   51.250      509
   51.325      515
   51.400      516
   51.475      523
   51.550      537
   51.625      540
   51.700      528
   51.775      489
   51.850      528
   51.925      505
   52.000      487
   52.075      533
   52.150      492
   52.225      523
   52.300      528
   52.375      502
   52.450      496
   52.525      544
   52.600      541
   52.675      523
   52.750      532
   52.825      499
   52.900      507
   52.975      503
   53.050      493
   53.125      503
   53.200      479
   53.275      479
   53.350      502
   53.425      483
   53.500      537
   53.575      517
   53.650      507
   53.725      517
   53.800      527
   53.875      503
   53.950      502
   54.025      491
   54.100      493
   54.175      494
   54.250      503
   54.325      497
   54.400      485
   54.475      508
   54.550      468
   54.625      491
   54.700      474
   54.775      475
   54.850      523
   54.925      507
   55.000      478
   55.075      493
   55.150      491
   55.225      486
   55.300      484
   55.375      435
   55.450      495
   55.525      490
   55.600      444
   55.675      506
   55.750      514
   55.825      461
   55.900      453
   55.975      481
   56.050      467
   56.125      496
   56.200      491
   56.275      507
   56.350      463
   56.425      479
   56.500      452
   56.575      487
   56.650      511
   56.725      486
   56.800      459
   56.875      469
   56.950      448
   57.025      488
   57.100      491
   57.175      475
   57.250      484
   57.325      462
   57.400      456
   57.475      477
   57.550      477
   57.625      494
   57.700      467
   57.775      468
   57.850      464
   57.925      445
   58.000      458
   58.075      443
   58.150      466
   58.225      491
   58.300      439
   58.375      457
   58.450      469
   58.525      476
   58.600      464
   58.675      461
   58.750      511
   58.825      438
   58.900      478
   58.975      463
   59.050      462
   59.125      465
   59.200      429
   59.275      456
   59.350      477
   59.425      464
   59.500      470
   59.575      462
   59.650      456
   59.725      448
   59.800      464
   59.875      465
   59.950      454
   60.025      484
   60.100      445
   60.175      466
   60.250      458
   60.325      497
   60.400      480
   60.475      484
   60.550      460
   60.625      462
   60.700      447
   60.775      467
   60.850      433
   60.925      503
   61.000      471
   61.075      431
   61.150      448
   61.225      431
   61.300      482
   61.375      469
   61.450      465
   61.525      449
   61.600      449
   61.675      475
   61.750      443
   61.825      445
   61.900      470
   61.975      453
   62.050      436
   62.125      436
   62.200      447
   62.275      457
   62.350      429
   62.425      427
   62.500      450
   62.575      473
   62.650      428
   62.725      476
   62.800      461
   62.875      462
   62.950      468
   63.025      434
   63.100      448
   63.175      462
   63.250      452
   63.325      434
   63.400      451
   63.475      446
   63.550      445
   63.625      453
   63.700      434
   63.775      442
   63.850      421
   63.925      420
   64.000      477
   64.075      460
   64.150      474
   64.225      427
   64.300      438
   64.375      445
   64.450      475
   64.525      430
   64.600      410
   64.675      440
   64.750      447
   64.825      431
   64.900      423
   64.975      441
   65.050      435
   65.125      419
   65.200      434
   65.275      452
   65.350      434
   65.425      444
   65.500      422
   65.575      442
   65.650      446
   65.725      424
   65.800      436
   65.875      428
   65.950      422
   66.025      425
   66.100      451
   66.175      402
   66.250      461
   66.325      454
   66.400      446
   66.475      454
   66.550      410
   66.625      443
   66.700      437
   66.775      460
   66.850      430
   66.925      436
   67.000      412
   67.075      443
   67.150      429
   67.225      435
   67.300      439
   67.375      400
   67.450      461
   67.525      429
   67.600      455
   67.675      415
   67.750      415
   67.825      428
   67.900      434
   67.975      422
   68.050      390
   68.125      438
   68.200      485
   68.275      454
   68.350      401
   68.425      420
   68.500      437
   68.575      449
   68.650      414
   68.725      393
   68.800      441
   68.875      441
   68.950      418
   69.025      441
   69.100      411
   69.175      422
   69.250      419
   69.325      372
   69.400      410
   69.475      426
   69.550      432
   69.625      422
   69.700      435
   69.775      388
   69.850      395
   69.925      393
   70.000      394
   70.075      390
   70.150      380
   70.225      395
   70.300      391
   70.375      403
   70.450      397
   70.525      417
   70.600      381
   70.675      388
   70.750      416
   70.825      411
   70.900      399
   70.975      379
   71.050      417
   71.125      376
   71.200      387
   71.275      396
   71.350      387
   71.425      413
   71.500      391
   71.575      395
   71.650      409
   71.725      408
   71.800      357
   71.875      392
   71.950      395
   72.025      352
   72.100      384
   72.175      387
   72.250      392
   72.325      383
   72.400      391
   72.475      432
   72.550      410
   72.625      372
   72.700      398
   72.775      406
   72.850      398
   72.925      388
   73.000      408
   73.075      375
   73.150      411
   73.225      401
   73.300      383
   73.375      399
   73.450      363
   73.525      402
   73.600      394
   73.675      380
   73.750      400
   73.825      372
   73.900      402
   73.975      366
   74.050      338
   74.125      370
   74.200      404
   74.275      364
   74.350      365
   74.425      356
   74.500      356
   74.575      389
   74.650      388
   74.725      343
   74.800      334
   74.875      362
   74.950      371
   75.025      366
   75.100      374
   75.175      328
   75.250      380
   75.325      365
   75.400      375
   75.475      345
   75.550      356
   75.625      361
   75.700      361
   75.775      354
   75.850      362
   75.925      387
   76.000      366
   76.075      347
   76.150      381
   76.225      380
   76.300      376
   76.375      345
   76.450      354
   76.525      339
   76.600      400
   76.675      372
   76.750      359
   76.825      347
   76.900      354
   76.975      370
   77.050      358
   77.125      367
   77.200      370
   77.275      360
   77.350      367
   77.425      345
   77.500      369
   77.575      346
   77.650      371
   77.725      369
   77.800      374
   77.875      369
   77.950      355
   78.025      375
   78.100      350
   78.175      365
   78.250      376
   78.325      353
   78.400      366
   78.475      341
   78.550      369
   78.625      371
   78.700      366
   78.775      343
   78.850      350
   78.925      332
   79.000      347
   79.075      339
   79.150      353
   79.225      360
   79.300      341
   79.375      327
   79.450      364
   79.525      356
   79.600      334
   79.675      359
   79.750      375
   79.825      377
   79.900      387
   79.975      383
   80.050      371
   80.125      344
   80.200      353
   80.275      334
   80.350      387
   80.425      352
   80.500      341
   80.575      329
   80.650      330
   80.725      387
   80.800      337
   80.875      359
   80.950      351
   81.025      355
   81.100      324
   81.175      357
   81.250      345
   81.325      346
   81.400      333
   81.475      345
   81.550      314
   81.625      343
   81.700      379
   81.775      333
   81.850      319
   81.925      325
   82.000      313
   82.075      331
   82.150      351
   82.225      348
   82.300      322
   82.375      322
   82.450      341
   82.525      370
   82.600      310
   82.675      317
   82.750      338
   82.825      332
   82.900      355
   82.975      311
   83.050      311
   83.125      316
   83.200      319
   83.275      343
   83.350      354
   83.425      327
   83.500      325
   83.575      309
   83.650      343
   83.725      310
   83.800      322
   83.875      308
   83.950      311
   84.025      353
   84.100      342
   84.175      314
   84.250      291
   84.325      328
   84.400      295
   84.475      305
   84.550      320
   84.625      334
   84.700      337
   84.775      312
   84.850      314
   84.925      300
   85.000      309
   85.075      306
   85.150      305
   85.225      316
   85.300      312
   85.375      318
   85.450      330
   85.525      302
   85.600      326
   85.675      293
   85.750      327
   85.825      309
   85.900      322
   85.975      354
   86.050      299
   86.125      311
   86.200      326
   86.275      300
   86.350      307
   86.425      320
   86.500      325
   86.575      334
   86.650      301
   86.725      318
   86.800      298
   86.875      301
   86.950      286
   87.025      328
   87.100      313
   87.175      315
   87.250      325
   87.325      318
   87.400      327
   87.475      300
   87.550      291
   87.625      290
   87.700      311
   87.775      294
   87.850      294
   87.925      302
   88.000      294
   88.075      293
   88.150      318
   88.225      279
   88.300      300
   88.375      293
   88.450      294
   88.525      304
   88.600      288
   88.675      296
   88.750      306
   88.825      306
   88.900      300
   88.975      309
   89.050      297
   89.125      279
   89.200      295
   89.275      298
   89.350      299
   89.425      309
   89.500      286
   89.575      289
   89.650      285
   89.725      316
   89.800      292
   89.875      322
   89.950      293
   90.025      291
   90.100      283
   90.175      277
   90.250      306
   90.325      300
   90.400      322
   90.475      313
   90.550      312
   90.625      299
   90.700      294
   90.775      324
   90.850      318
   90.925      296
   91.000      276
   91.075      283
   91.150      279
   91.225      296
   91.300      293
   91.375      273
   91.450      293
   91.525      272
   91.600      284
   91.675      310
   91.750      309
   91.825      294
   91.900      303
   91.975      293
   92.050      287
   92.125      291
   92.200      271
   92.275      279
   92.350      271
   92.425      298
   92.500      291
   92.575      299
   92.650      282
   92.725      266
   92.800      277
   92.875      282
   92.950      303
   93.025      300
   93.100      300
   93.175      313
   93.250      297
   93.325      293
   93.400      293
   93.475      281
   93.550      298
   93.625      312
   93.700      289
   93.775      297
   93.850      289
   93.925      279
   94.000      290
   94.075      285
   94.150      305
   94.225      294
   94.300      284
   94.375      315
   94.450      283
   94.525      302
   94.600      267
   94.675      300
   94.750      299
   94.825      297
   94.900      283
   94.975      278
   95.050      284
   95.125      276
   95.200      298
   95.275      280
   95.350      283
   95.425      297
   95.500      266
   95.575      334
   95.650      294
   95.725      288
   95.800      292
   95.875      266
   95.950      281
   96.025      285
   96.100      290
   96.175      309
   96.250      288
   96.325      282
   96.400      268
   96.475      298
   96.550      273
   96.625      312
   96.700      262
   96.775      279
   96.850      297
   96.925      297
   97.000      303
   97.075      294
   97.150      298
   97.225      275
   97.300      280
   97.375      271
   97.450      293
   97.525      328
   97.600      286
   97.675      265
   97.750      272
   97.825      278
   97.900      270
   97.975      306
   98.050      289
   98.125      268
   98.200      240
   98.275      265
   98.350      290
   98.425      299
   98.500      288
   98.575      315
   98.650      310
   98.725      301
   98.800      270
   98.875      274
   98.950      269
   99.025      285
   99.100      285
   99.175      304
   99.250      275
   99.325      274
   99.400      302
   99.475      312
   99.550      298
   99.625      269
   99.700      256
   99.775      275
   99.850      282
   99.925      297
  100.000      261
  100.075      275
  100.105      264