File: XRD/DWTR_FL/fine-washed.xyd
    4.000     2387
    4.075     2411
    4.150     2300
    4.225     2302
    4.300     2234
    4.375     2264
    4.450     2237
    4.525     2213
    4.600     2182
    4.675     2141
    4.750     2119
    4.825     2056
    4.900     2082
    4.975     2102
    5.050     1945
    5.125     2050
    5.200     2036
    5.275     1985
    5.350     1937
    5.425     2075
    5.500     2005
    5.575     1856
    5.650     2015
    5.725     1940
    5.800     1899
    5.875     1907
    5.950     1921
    6.025     1900
    6.100     1847
    6.175     1873
    6.250     1922
    6.325     1881
    6.400     1854
    6.475     1752
    6.550     1749
    6.625     1795
    6.700     1736
    6.775     1673
    6.850     1708
    6.925     1656
    7.000     1640
    7.075     1575
    7.150     1680
    7.225     1697
    7.300     1585
    7.375     1677
    7.450     1542
    7.525     1625
    7.600     1600
    7.675     1569
    7.750     1577
    7.825     1542
    7.900     1508
    7.975     1550
    8.050     1460
    8.125     1510
    8.200     1500
    8.275     1444
    8.350     1428
    8.425     1458
    8.500     1404
    8.575     1402
    8.650     1404
    8.725     1419
    8.800     1352
    8.875     1366
    8.950     1442
    9.025     1373
    9.100     1348
    9.175     1404
    9.250     1403
    9.325     1378
    9.400     1288
    9.475     1367
    9.550     1383
    9.625     1271
    9.700     1323
    9.775     1328
    9.850     1274
    9.925     1356
   10.000     1316
   10.075     1294
   10.150     1278
   10.225     1305
   10.300     1287
   10.375     1348
   10.450     1361
   10.525     1252
   10.600     1255
   10.675     1259
   10.750     1221
   10.825     1276
   10.900     1301
   10.975     1314
   11.050     1239
   11.125     1263
   11.200     1297
   11.275     1298
   11.350     1294
   11.425     1272
   11.500     1252
   11.575     1272
   11.650     1238
   11.725     1224
   11.800     1212
   11.875     1293
   11.950     1240
   12.025     1174
   12.100     1254
   12.175     1258
   12.250     1222
   12.325     1195
   12.400     1213
   12.475     1195
   12.550     1212
   12.625     1223
   12.700     1213
   12.775     1137
   12.850     1168
   12.925     1135
   13.000     1129
   13.075     1112
   13.150     1156
   13.225     1136
   13.300     1163
   13.375     1112
   13.450     1141
   13.525     1136
   13.600     1089
   13.675     1139
   13.750     1084
   13.825     1150
   13.900     1144
   13.975     1058
   14.050     1053
   14.125     1135
   14.200     1065
   14.275     1115
   14.350     1106
   14.425     1068
   14.500     1071
   14.575     1089
   14.650     1084
   14.725     1064
   14.800     1105
   14.875     1106
   14.950     1093
   15.025     1076
   15.100     1083
   15.175     1066
   15.250     1120
   15.325     1047
   15.400     1071
   15.475     1039
   15.550     1032
   15.625     1000
   15.700     1049
   15.775     1058
   15.850     1040
   15.925     1044
   16.000     1052
   16.075     1058
   16.150     1057
   16.225     1027
   16.300      997
   16.375     1047
   16.450      988
   16.525     1010
   16.600     1045
   16.675     1019
   16.750      965
   16.825     1030
   16.900      984
   16.975      993
   17.050     1023
   17.125     1037
   17.200      982
   17.275      997
   17.350      946
   17.425     1026
   17.500     1011
   17.575     1005
   17.650      938
   17.725      970
   17.800      987
   17.875      983
   17.950      964
   18.025      988
   18.100      988
   18.175      990
   18.250     1002
   18.325      995
   18.400     1007
   18.475      973
   18.550      982
   18.625      930
   18.700     1044
   18.775      963
   18.850      984
   18.925      925
   19.000      950
   19.075      924
   19.150      914
   19.225      936
   19.300      918
   19.375      967
   19.450      934
   19.525      953
   19.600      881
   19.675      960
   19.750      944
   19.825      933
   19.900      949
   19.975      882
   20.050      885
   20.125      906
   20.200      860
   20.275      932
   20.350      869
   20.425      919
   20.500      950
   20.575     1019
   20.650     1396
   20.725     2233
   20.800     4901
   20.875     1887
   20.950      861
   21.025      835
   21.100      855
   21.175      849
   21.250      869
   21.325      827
   21.400      842
   21.475      927
   21.550      858
   21.625      861
   21.700      819
   21.775      798
   21.850      812
   21.925      812
   22.000      809
   22.075      791
   22.150      811
   22.225      826
   22.300      832
   22.375      801
   22.450      806
   22.525      812
   22.600      763
   22.675      759
   22.750      763
   22.825      745
   22.900      764
   22.975      761
   23.050      807
   23.125      769
   23.200      735
   23.275      771
   23.350      762
   23.425      724
   23.500      768
   23.575      766
   23.650      737
   23.725      781
   23.800      753
   23.875      704
   23.950      739
   24.025      687
   24.100      722
   24.175      768
   24.250      734
   24.325      733
   24.400      710
   24.475      679
   24.550      677
   24.625      675
   24.700      682
   24.775      680
   24.850      665
   24.925      676
   25.000      675
   25.075      677
   25.150      706
   25.225      683
   25.300      697
   25.375      658
   25.450      663
   25.525      657
   25.600      661
   25.675      711
   25.750      683
   25.825      652
   25.900      701
   25.975      664
   26.050      651
   26.125      654
   26.200      673
   26.275      736
   26.350      979
   26.425     2580
   26.500     8911
   26.575    36074
   26.650    11855
   26.725      841
   26.800      742
   26.875      709
   26.950      644
   27.025      602
   27.100      584
   27.175      597
   27.250      624
   27.325      605
   27.400      627
   27.475      590
   27.550      607
   27.625      614
   27.700      587
   27.775      606
   27.850      589
   27.925      578
   28.000      583
   28.075      577
   28.150      582
   28.225      567
   28.300      561
   28.375      578
   28.450      547
   28.525      540
   28.600      512
   28.675      533
   28.750      528
   28.825      539
   28.900      550
   28.975      517
   29.050      500
   29.125      567
   29.200      516
   29.275      502
   29.350      538
   29.425      524
   29.500      510
   29.575      511
   29.650      510
   29.725      503
   29.800      479
   29.875      509
   29.950      481
   30.025      524
   30.100      472
   30.175      483
   30.250      489
   30.325      492
   30.400      460
   30.475      509
   30.550      494
   30.625      494
   30.700      507
   30.775      456
   30.850      454
   30.925      451
   31.000      465
   31.075      448
   31.150      450
   31.225      456
   31.300      449
   31.375      476
   31.450      434
   31.525      476
   31.600      453
   31.675      443
   31.750      461
   31.825      445
   31.900      461
   31.975      456
   32.050      414
   32.125      442
   32.200      434
   32.275      452
   32.350      441
   32.425      454
   32.500      441
   32.575      431
   32.650      450
   32.725      428
   32.800      402
   32.875      414
   32.950      402
   33.025      413
   33.100      403
   33.175      418
   33.250      441
   33.325      403
   33.400      433
   33.475      437
   33.550      437
   33.625      403
   33.700      437
   33.775      396
   33.850      433
   33.925      419
   34.000      394
   34.075      403
   34.150      418
   34.225      384
   34.300      392
   34.375      437
   34.450      407
   34.525      425
   34.600      397
   34.675      395
   34.750      370
   34.825      394
   34.900      393
   34.975      408
   35.050      404
   35.125      399
   35.200      413
   35.275      372
   35.350      399
   35.425      409
   35.500      355
   35.575      397
   35.650      398
   35.725      411
   35.800      374
   35.875      392
   35.950      411
   36.025      407
   36.100      379
   36.175      408
   36.250      410
   36.325      445
   36.400      784
   36.475     2891
   36.550     1519
   36.625      436
   36.700      377
   36.775      379
   36.850      399
   36.925      411
   37.000      403
   37.075      393
   37.150      441
   37.225      378
   37.300      382
   37.375      389
   37.450      373
   37.525      397
   37.600      374
   37.675      380
   37.750      402
   37.825      364
   37.900      381
   37.975      384
   38.050      372
   38.125      385
   38.200      378
   38.275      395
   38.350      402
   38.425      401
   38.500      400
   38.575      383
   38.650      355
   38.725      398
   38.800      369
   38.875      362
   38.950      418
   39.025      381
   39.100      387
   39.175      359
   39.250      457
   39.325     1007
   39.400     2555
   39.475     1367
   39.550      415
   39.625      374
   39.700      375
   39.775      371
   39.850      375
   39.925      355
   40.000      359
   40.075      398
   40.150      620
   40.225     1469
   40.300      676
   40.375      375
   40.450      387
   40.525      348
   40.600      363
   40.675      364
   40.750      372
   40.825      362
   40.900      380
   40.975      361
   41.050      360
   41.125      370
   41.200      394
   41.275      379
   41.350      362
   41.425      349
   41.500      350
   41.575      358
   41.650      374
   41.725      362
   41.800      344
   41.875      379
   41.950      351
   42.025      351
   42.100      375
   42.175      399
   42.250      408
   42.325      997
   42.400     1687
   42.475      621
   42.550      372
   42.625      338
   42.700      369
   42.775      350
   42.850      378
   42.925      357
   43.000      356
   43.075      357
   43.150      330
   43.225      351
   43.300      321
   43.375      336
   43.450      349
   43.525      353
   43.600      326
   43.675      339
   43.750      343
   43.825      349
   43.900      342
   43.975      336
   44.050      356
   44.125      315
   44.200      380
   44.275      316
   44.350      355
   44.425      370
   44.500      342
   44.575      319
   44.650      345
   44.725      361
   44.800      339
   44.875      340
   44.950      311
   45.025      364
   45.100      350
   45.175      328
   45.250      342
   45.325      336
   45.400      326
   45.475      361
   45.550      327
   45.625      448
   45.700     1239
   45.775      883
   45.850      382
   45.925      348
   46.000      297
   46.075      341
   46.150      331
   46.225      311
   46.300      349
   46.375      324
   46.450      330
   46.525      311
   46.600      324
   46.675      316
   46.750      304
   46.825      294
   46.900      318
   46.975      312
   47.050      300
   47.125      316
   47.200      317
   47.275      319
   47.350      315
   47.425      283
   47.500      310
   47.575      303
   47.650      315
   47.725      328
   47.800      326
   47.875      321
   47.950      304
   48.025      292
   48.100      291
   48.175      311
   48.250      311
   48.325      324
   48.400      331
   48.475      288
   48.550      271
   48.625      295
   48.700      273
   48.775      305
   48.850      335
   48.925      282
   49.000      284
   49.075      296
   49.150      281
   49.225      292
   49.300      289
   49.375      300
   49.450      284
   49.525      281
   49.600      294
   49.675      283
   49.750      264
   49.825      297
   49.900      325
   49.975     1104
   50.050     3902
   50.125     2336
   50.200      447
   50.275      319
   50.350      269
   50.425      287
   50.500      318
   50.575      357
   50.650      314
   50.725      285
   50.800      286
   50.875      274
   50.950      258
   51.025      275
   51.100      261
   51.175      267
   51.250      295
   51.325      280
   51.400      265
   51.475      249
   51.550      285
   51.625      277
   51.700      255
   51.775      255
   51.850      257
   51.925      261
   52.000      279
   52.075      267
   52.150      276
   52.225      268
   52.300      244
   52.375      273
   52.450      242
   52.525      273
   52.600      256
   52.675      226
   52.750      263
   52.825      234
   52.900      288
   52.975      279
   53.050      273
   53.125      246
   53.200      256
   53.275      264
   53.350      250
   53.425      245
   53.500      266
   53.575      248
   53.650      279
   53.725      236
   53.800      241
   53.875      256
   53.950      268
   54.025      234
   54.100      259
   54.175      260
   54.250      261
   54.325      247
   54.400      249
   54.475      265
   54.550      267
   54.625      252
   54.700      553
   54.775     1206
   54.850      911
   54.925      347
   55.000      256
   55.075      244
   55.150      381
   55.225      671
   55.300      599
   55.375      294
   55.450      235
   55.525      232
   55.600      266
   55.675      259
   55.750      261
   55.825      248
   55.900      240
   55.975      240
   56.050      238
   56.125      264
   56.200      240
   56.275      235
   56.350      231
   56.425      221
   56.500      254
   56.575      247
   56.650      245
   56.725      222
   56.800      223
   56.875      228
   56.950      226
   57.025      239
   57.100      297
   57.175      302
   57.250      257
   57.325      208
   57.400      234
   57.475      237
   57.550      237
   57.625      238
   57.700      240
   57.775      262
   57.850      232
   57.925      229
   58.000      252
   58.075      217
   58.150      238
   58.225      231
   58.300      253
   58.375      246
   58.450      213
   58.525      240
   58.600      225
   58.675      228
   58.750      223
   58.825      232
   58.900      220
   58.975      236
   59.050      220
   59.125      215
   59.200      229
   59.275      239
   59.350      252
   59.425      240
   59.500      206
   59.575      243
   59.650      250
   59.725      304
   59.800     1128
   59.875     2294
   59.950     1243
   60.025      341
   60.100      263
   60.175      226
   60.250      241
   60.325      227
   60.400      223
   60.475      251
   60.550      234
   60.625      242
   60.700      233
   60.775      226
   60.850      249
   60.925      238
   61.000      220
   61.075      220
   61.150      248
   61.225      221
   61.300      225
   61.375      251
   61.450      215
   61.525      245
   61.600      229
   61.675      226
   61.750      220
   61.825      234
   61.900      225
   61.975      231
   62.050      232
   62.125      226
   62.200      223
   62.275      224
   62.350      200
   62.425      213
   62.500      227
   62.575      214
   62.650      231
   62.725      219
   62.800      237
   62.875      206
   62.950      213
   63.025      231
   63.100      207
   63.175      226
   63.250      237
   63.325      238
   63.400      230
   63.475      225
   63.550      220
   63.625      241
   63.700      229
   63.775      233
   63.850      314
   63.925      651
   64.000      491
   64.075      279
   64.150      233
   64.225      212
   64.300      218
   64.375      241
   64.450      227
   64.525      210
   64.600      226
   64.675      235
   64.750      229
   64.825      230
   64.900      204
   64.975      220
   65.050      240
   65.125      208
   65.200      210
   65.275      229
   65.350      251
   65.425      221
   65.500      225
   65.575      255
   65.650      283
   65.725      286
   65.800      228
   65.875      206
   65.950      232
   66.025      217
   66.100      214
   66.175      212
   66.250      191
   66.325      208
   66.400      190
   66.475      221
   66.550      214
   66.625      209
   66.700      204
   66.775      196
   66.850      229
   66.925      236
   67.000      197
   67.075      191
   67.150      223
   67.225      226
   67.300      192
   67.375      225
   67.450      211
   67.525      345
   67.600     1223
   67.675     1228
   67.750      674
   67.825      286
   67.900      316
   67.975     1134
   68.050     1235
   68.125     1410
   68.200     1056
   68.275      733
   68.350      390
   68.425      249
   68.500      201
   68.575      204
   68.650      232
   68.725      194
   68.800      198
   68.875      200
   68.950      189
   69.025      206
   69.100      185
   69.175      207
   69.250      196
   69.325      216
   69.400      209
   69.475      183
   69.550      175
   69.625      198
   69.700      196
   69.775      227
   69.850      189
   69.925      189
   70.000      218
   70.075      195
   70.150      213
   70.225      192
   70.300      201
   70.375      209
   70.450      195
   70.525      213
   70.600      192
   70.675      187
   70.750      203
   70.825      178
   70.900      175
   70.975      183
   71.050      180
   71.125      187
   71.200      178
   71.275      177
   71.350      183
   71.425      188
   71.500      193
   71.575      190
   71.650      177
   71.725      193
   71.800      179
   71.875      182
   71.950      186
   72.025      169
   72.100      165
   72.175      159
   72.250      205
   72.325      193
   72.400      191
   72.475      176
   72.550      188
   72.625      185
   72.700      160
   72.775      194
   72.850      195
   72.925      178
   73.000      188
   73.075      178
   73.150      197
   73.225      211
   73.300      493
   73.375      538
   73.450      413
   73.525      226
   73.600      194
   73.675      178
   73.750      177
   73.825      196
   73.900      167
   73.975      185
   74.050      176
   74.125      179
   74.200      185
   74.275      182
   74.350      188
   74.425      156
   74.500      177
   74.575      154
   74.650      171
   74.725      173
   74.800      179
   74.875      178
   74.950      174
   75.025      172
   75.100      171
   75.175      147
   75.250      192
   75.325      202
   75.400      188
   75.475      471
   75.550      746
   75.625      504
   75.700      277
   75.775      199
   75.850      165
   75.925      180
   76.000      176
   76.075      153
   76.150      159
   76.225      149
   76.300      191
   76.375      167
   76.450      177
   76.525      174
   76.600      173
   76.675      175
   76.750      152
   76.825      165
   76.900      162
   76.975      161
   77.050      158
   77.125      155
   77.200      170
   77.275      154
   77.350      162
   77.425      200
   77.500      375
   77.575      379
   77.650      277
   77.725      181
   77.800      172
   77.875      175
   77.950      155
   78.025      174
   78.100      177
   78.175      163
   78.250      179
   78.325      168
   78.400      163
   78.475      178
   78.550      163
   78.625      166
   78.700      167
   78.775      161
   78.850      161
   78.925      165
   79.000      175
   79.075      150
   79.150      143
   79.225      150
   79.300      150
   79.375      161
   79.450      181
   79.525      136
   79.600      195
   79.675      352
   79.750      569
   79.825      545
   79.900      412
   79.975      320
   80.050      217
   80.125      166
   80.200      161
   80.275      166
   80.350      155
   80.425      142
   80.500      153
   80.575      151
   80.650      151
   80.725      159
   80.800      162
   80.875      167
   80.950      294
   81.025      604
   81.100      550
   81.175      335
   81.250      264
   81.325      484
   81.400      563
   81.475      431
   81.550      219
   81.625      157
   81.700      144
   81.775      156
   81.850      161
   81.925      160
   82.000      150
   82.075      151
   82.150      138
   82.225      146
   82.300      157
   82.375      134
   82.450      148
   82.525      147
   82.600      139
   82.675      134
   82.750      151
   82.825      142
   82.900      141
   82.975      128
   83.050      147
   83.125      138
   83.200      146
   83.275      153
   83.350      129
   83.425      134
   83.500      144
   83.575      169
   83.650      332
   83.725      390
   83.800      326
   83.875      180
   83.950      146
   84.025      149
   84.100      127
   84.175      136
   84.250      141
   84.325      126
   84.400      131
   84.475      140
   84.550      143
   84.625      147
   84.700      141
   84.775      163
   84.850      169
   84.925      168
   85.000      132
   85.075      133
   85.150      118
   85.225      139
   85.300      124
   85.375      129
   85.450      126
   85.525      130
   85.600      124
   85.675      116
   85.750      126
   85.825      132
   85.900      131
   85.975      142
   86.050      136
   86.125      156
   86.200      141
   86.275      131
   86.350      145
   86.425      117
   86.500      135
   86.575      127
   86.650      116
   86.725      124
   86.800      134
   86.875      144
   86.950      127
   87.025      129
   87.100      106
   87.175      131
   87.250      157
   87.325      144
   87.400      159
   87.475      150
   87.550      117
   87.625      127
   87.700      124
   87.775      133
   87.850      133
   87.925      107
   88.000      143
   88.075      136
   88.150      139
   88.225      122
   88.300      120
   88.375      131
   88.450      116
   88.525      107
   88.600      122
   88.675      133
   88.750      128
   88.825      122
   88.900      138
   88.975      119
   89.050      136
   89.125      135
   89.200      127
   89.275      119
   89.350      125
   89.425      105
   89.500      123
   89.575      113
   89.650      126
   89.725      117
   89.800      112
   89.875      107
   89.950      109
   90.025      124
   90.100      106
   90.175      113
   90.250      115
   90.325      134
   90.400      141
   90.475      106
   90.550      170
   90.625      371
   90.700      484
   90.775      405
   90.850      261
   90.925      132
   91.000      116
   91.075      117
   91.150      106
   91.225      125
   91.300      119
   91.375      128
   91.450      106
   91.525      111
   91.600      140
   91.675       99
   91.750      102
   91.825      107
   91.900      109
   91.975      110
   92.050      118
   92.125      119
   92.200      116
   92.275      113
   92.350      118
   92.425      118
   92.500      120
   92.575      148
   92.650      168
   92.725      168
   92.800      153
   92.875      127
   92.950      114
   93.025       98
   93.100      106
   93.175      115
   93.250      108
   93.325      110
   93.400      115
   93.475      108
   93.550      113
   93.625      103
   93.700      101
   93.775      100
   93.850       94
   93.925      135
   94.000      122
   94.075      112
   94.150      113
   94.225      118
   94.300      121
   94.375      149
   94.450      279
   94.525      348
   94.600      253
   94.675      182
   94.750      139
   94.825      123
   94.900      167
   94.975      205
   95.050      202
   95.125      159
   95.200      116
   95.275       98
   95.350      109
   95.425      117
   95.500      123
   95.575      111
   95.650      114
   95.725      101
   95.800      106
   95.875      110
   95.950      122
   96.025      224
   96.100      275
   96.175      271
   96.250      224
   96.325      134
   96.400      109
   96.475      114
   96.550      124
   96.625      123
   96.700      111
   96.775       98
   96.850      113
   96.925      101
   97.000      111
   97.075      103
   97.150      110
   97.225       81
   97.300      110
   97.375      108
   97.450       85
   97.525       97
   97.600      119
   97.675      102
   97.750      126
   97.825      116
   97.900      111
   97.975      113
   98.050      104
   98.125      114
   98.200      114
   98.275      110
   98.350      105
   98.425      107
   98.500      166
   98.575      226
   98.650      241
   98.725      198
   98.800      148
   98.875      101
   98.950      104
   99.025       97
   99.100      119
   99.175      102
   99.250      108
   99.325      104
   99.400      104
   99.475      103
   99.550      103
   99.625      121
   99.700       97
   99.775      102
   99.850       97
   99.925       87
  100.000      107
  100.075      116
  100.105       98