File: XRD/DWTR_FL/original-unwashed-rep.xyd
    4.000     4278
    4.075     4186
    4.150     4006
    4.225     4018
    4.300     4002
    4.375     3896
    4.450     3947
    4.525     3808
    4.600     3840
    4.675     3710
    4.750     3738
    4.825     3570
    4.900     3560
    4.975     3496
    5.050     3505
    5.125     3477
    5.200     3433
    5.275     3375
    5.350     3358
    5.425     3248
    5.500     3241
    5.575     3341
    5.650     3363
    5.725     3217
    5.800     3071
    5.875     3183
    5.950     3058
    6.025     3021
    6.100     3048
    6.175     3077
    6.250     3029
    6.325     2963
    6.400     2992
    6.475     2954
    6.550     2863
    6.625     2827
    6.700     2730
    6.775     2793
    6.850     2816
    6.925     2592
    7.000     2660
    7.075     2640
    7.150     2576
    7.225     2575
    7.300     2607
    7.375     2638
    7.450     2535
    7.525     2469
    7.600     2532
    7.675     2446
    7.750     2522
    7.825     2437
    7.900     2480
    7.975     2370
    8.050     2443
    8.125     2442
    8.200     2441
    8.275     2395
    8.350     2303
    8.425     2242
    8.500     2311
    8.575     2253
    8.650     2245
    8.725     2209
    8.800     2290
    8.875     2271
    8.950     2222
    9.025     2147
    9.100     2248
    9.175     2133
    9.250     2196
    9.325     2137
    9.400     2126
    9.475     2066
    9.550     2141
    9.625     2083
    9.700     2070
    9.775     2039
    9.850     2077
    9.925     2077
   10.000     2105
   10.075     2122
   10.150     2117
   10.225     2032
   10.300     1982
   10.375     2058
   10.450     1992
   10.525     1997
   10.600     2028
   10.675     1963
   10.750     1971
   10.825     1982
   10.900     1990
   10.975     1953
   11.050     1935
   11.125     2005
   11.200     1917
   11.275     1985
   11.350     1945
   11.425     1911
   11.500     2017
   11.575     1943
   11.650     1932
   11.725     1906
   11.800     1918
   11.875     1889
   11.950     1876
   12.025     1849
   12.100     1943
   12.175     1919
   12.250     1971
   12.325     1851
   12.400     1854
   12.475     1819
   12.550     1854
   12.625     1788
   12.700     1830
   12.775     1768
   12.850     1768
   12.925     1723
   13.000     1771
   13.075     1759
   13.150     1745
   13.225     1717
   13.300     1768
   13.375     1695
   13.450     1795
   13.525     1739
   13.600     1703
   13.675     1778
   13.750     1686
   13.825     1717
   13.900     1684
   13.975     1660
   14.050     1744
   14.125     1703
   14.200     1658
   14.275     1707
   14.350     1647
   14.425     1656
   14.500     1651
   14.575     1682
   14.650     1675
   14.725     1633
   14.800     1704
   14.875     1663
   14.950     1619
   15.025     1509
   15.100     1589
   15.175     1606
   15.250     1624
   15.325     1646
   15.400     1626
   15.475     1585
   15.550     1581
   15.625     1703
   15.700     1630
   15.775     1608
   15.850     1584
   15.925     1598
   16.000     1540
   16.075     1597
   16.150     1629
   16.225     1562
   16.300     1614
   16.375     1529
   16.450     1554
   16.525     1555
   16.600     1554
   16.675     1545
   16.750     1493
   16.825     1536
   16.900     1563
   16.975     1508
   17.050     1519
   17.125     1523
   17.200     1499
   17.275     1470
   17.350     1538
   17.425     1514
   17.500     1508
   17.575     1439
   17.650     1515
   17.725     1571
   17.800     1562
   17.875     1507
   17.950     1543
   18.025     1492
   18.100     1557
   18.175     1526
   18.250     1530
   18.325     1529
   18.400     1518
   18.475     1488
   18.550     1516
   18.625     1450
   18.700     1555
   18.775     1478
   18.850     1525
   18.925     1418
   19.000     1406
   19.075     1427
   19.150     1444
   19.225     1539
   19.300     1416
   19.375     1517
   19.450     1402
   19.525     1553
   19.600     1455
   19.675     1412
   19.750     1510
   19.825     1447
   19.900     1421
   19.975     1451
   20.050     1411
   20.125     1422
   20.200     1454
   20.275     1413
   20.350     1379
   20.425     1435
   20.500     1411
   20.575     1421
   20.650     1453
   20.725     1739
   20.800     2255
   20.875     5103
   20.950     1761
   21.025     1329
   21.100     1297
   21.175     1356
   21.250     1363
   21.325     1311
   21.400     1332
   21.475     1357
   21.550     1304
   21.625     1323
   21.700     1281
   21.775     1282
   21.850     1262
   21.925     1297
   22.000     1276
   22.075     1284
   22.150     1332
   22.225     1291
   22.300     1301
   22.375     1247
   22.450     1265
   22.525     1251
   22.600     1244
   22.675     1201
   22.750     1248
   22.825     1212
   22.900     1258
   22.975     1246
   23.050     1208
   23.125     1231
   23.200     1193
   23.275     1213
   23.350     1173
   23.425     1162
   23.500     1183
   23.575     1195
   23.650     1148
   23.725     1252
   23.800     1176
   23.875     1163
   23.950     1173
   24.025     1172
   24.100     1169
   24.175     1159
   24.250     1131
   24.325     1142
   24.400     1131
   24.475     1181
   24.550     1115
   24.625     1175
   24.700     1097
   24.775     1116
   24.850     1097
   24.925     1110
   25.000     1165
   25.075     1159
   25.150     1115
   25.225     1106
   25.300     1072
   25.375     1097
   25.450     1055
   25.525     1074
   25.600     1087
   25.675     1093
   25.750     1106
   25.825     1039
   25.900     1083
   25.975     1090
   26.050     1064
   26.125     1059
   26.200     1077
   26.275     1123
   26.350     1134
   26.425     1162
   26.500     1781
   26.575     4319
   26.650    13890
   26.725     6896
   26.800     1160
   26.875     1053
   26.950     1061
   27.025     1089
   27.100     1019
   27.175     1011
   27.250     1006
   27.325      944
   27.400     1022
   27.475      976
   27.550      978
   27.625     1001
   27.700      966
   27.775      952
   27.850     1010
   27.925      974
   28.000      980
   28.075      963
   28.150      959
   28.225      917
   28.300      899
   28.375      932
   28.450      888
   28.525      889
   28.600      931
   28.675      881
   28.750      964
   28.825      872
   28.900      883
   28.975      936
   29.050      906
   29.125      878
   29.200      886
   29.275      864
   29.350      866
   29.425      818
   29.500      881
   29.575      874
   29.650      870
   29.725      798
   29.800      813
   29.875      863
   29.950      874
   30.025      826
   30.100      866
   30.175      831
   30.250      867
   30.325      848
   30.400      871
   30.475      820
   30.550      793
   30.625      816
   30.700      828
   30.775      847
   30.850      768
   30.925      779
   31.000      824
   31.075      773
   31.150      774
   31.225      757
   31.300      830
   31.375      789
   31.450      765
   31.525      768
   31.600      734
   31.675      749
   31.750      746
   31.825      717
   31.900      750
   31.975      698
   32.050      716
   32.125      756
   32.200      769
   32.275      733
   32.350      769
   32.425      769
   32.500      763
   32.575      777
   32.650      714
   32.725      758
   32.800      724
   32.875      720
   32.950      728
   33.025      727
   33.100      759
   33.175      725
   33.250      722
   33.325      727
   33.400      701
   33.475      740
   33.550      723
   33.625      690
   33.700      732
   33.775      716
   33.850      708
   33.925      724
   34.000      687
   34.075      694
   34.150      691
   34.225      662
   34.300      687
   34.375      708
   34.450      676
   34.525      703
   34.600      716
   34.675      685
   34.750      685
   34.825      723
   34.900      674
   34.975      661
   35.050      647
   35.125      666
   35.200      673
   35.275      708
   35.350      652
   35.425      677
   35.500      658
   35.575      668
   35.650      676
   35.725      681
   35.800      673
   35.875      705
   35.950      686
   36.025      647
   36.100      656
   36.175      640
   36.250      634
   36.325      648
   36.400      655
   36.475      715
   36.550      991
   36.625     1573
   36.700      699
   36.775      690
   36.850      671
   36.925      651
   37.000      637
   37.075      654
   37.150      658
   37.225      642
   37.300      619
   37.375      637
   37.450      652
   37.525      634
   37.600      617
   37.675      631
   37.750      651
   37.825      624
   37.900      645
   37.975      627
   38.050      682
   38.125      644
   38.200      673
   38.275      659
   38.350      665
   38.425      655
   38.500      680
   38.575      642
   38.650      627
   38.725      664
   38.800      679
   38.875      636
   38.950      626
   39.025      642
   39.100      640
   39.175      651
   39.250      666
   39.325      644
   39.400      718
   39.475     1198
   39.550     1696
   39.625      730
   39.700      683
   39.775      642
   39.850      645
   39.925      678
   40.000      644
   40.075      639
   40.150      673
   40.225      663
   40.300      880
   40.375     1314
   40.450      648
   40.525      631
   40.600      650
   40.675      633
   40.750      638
   40.825      635
   40.900      673
   40.975      643
   41.050      629
   41.125      623
   41.200      645
   41.275      634
   41.350      646
   41.425      616
   41.500      617
   41.575      605
   41.650      659
   41.725      617
   41.800      616
   41.875      659
   41.950      559
   42.025      629
   42.100      636
   42.175      616
   42.250      659
   42.325      611
   42.400      687
   42.475     1081
   42.550     1281
   42.625      638
   42.700      575
   42.775      575
   42.850      626
   42.925      618
   43.000      579
   43.075      592
   43.150      641
   43.225      614
   43.300      595
   43.375      619
   43.450      599
   43.525      565
   43.600      605
   43.675      569
   43.750      639
   43.825      581
   43.900      576
   43.975      627
   44.050      621
   44.125      559
   44.200      594
   44.275      599
   44.350      565
   44.425      614
   44.500      588
   44.575      602
   44.650      593
   44.725      587
   44.800      575
   44.875      562
   44.950      587
   45.025      569
   45.100      576
   45.175      572
   45.250      570
   45.325      540
   45.400      566
   45.475      579
   45.550      543
   45.625      546
   45.700      606
   45.775      619
   45.850      995
   45.925     1020
   46.000      568
   46.075      570
   46.150      558
   46.225      542
   46.300      537
   46.375      536
   46.450      550
   46.525      519
   46.600      560
   46.675      514
   46.750      503
   46.825      486
   46.900      524
   46.975      529
   47.050      526
   47.125      538
   47.200      488
   47.275      492
   47.350      505
   47.425      535
   47.500      502
   47.575      514
   47.650      511
   47.725      518
   47.800      534
   47.875      518
   47.950      507
   48.025      485
   48.100      503
   48.175      505
   48.250      557
   48.325      487
   48.400      496
   48.475      491
   48.550      497
   48.625      501
   48.700      458
   48.775      456
   48.850      486
   48.925      476
   49.000      487
   49.075      490
   49.150      498
   49.225      529
   49.300      470
   49.375      447
   49.450      446
   49.525      475
   49.600      449
   49.675      475
   49.750      462
   49.825      422
   49.900      475
   49.975      463
   50.050      485
   50.125      625
   50.200     2093
   50.275     1656
   50.350      492
   50.425      495
   50.500      447
   50.575      463
   50.650      462
   50.725      508
   50.800      459
   50.875      436
   50.950      442
   51.025      428
   51.100      441
   51.175      408
   51.250      455
   51.325      437
   51.400      461
   51.475      453
   51.550      439
   51.625      437
   51.700      434
   51.775      426
   51.850      463
   51.925      447
   52.000      435
   52.075      435
   52.150      389
   52.225      430
   52.300      445
   52.375      427
   52.450      415
   52.525      410
   52.600      437
   52.675      421
   52.750      444
   52.825      396
   52.900      436
   52.975      427
   53.050      447
   53.125      438
   53.200      405
   53.275      439
   53.350      405
   53.425      431
   53.500      411
   53.575      396
   53.650      434
   53.725      417
   53.800      397
   53.875      414
   53.950      445
   54.025      414
   54.100      425
   54.175      423
   54.250      413
   54.325      421
   54.400      397
   54.475      427
   54.550      398
   54.625      398
   54.700      404
   54.775      426
   54.850      514
   54.925      973
   55.000      972
   55.075      454
   55.150      416
   55.225      420
   55.300      437
   55.375      501
   55.450      599
   55.525      402
   55.600      407
   55.675      388
   55.750      403
   55.825      391
   55.900      361
   55.975      384
   56.050      360
   56.125      370
   56.200      401
   56.275      405
   56.350      378
   56.425      367
   56.500      393
   56.575      385
   56.650      388
   56.725      384
   56.800      380
   56.875      371
   56.950      397
   57.025      390
   57.100      400
   57.175      405
   57.250      384
   57.325      407
   57.400      390
   57.475      403
   57.550      384
   57.625      388
   57.700      385
   57.775      396
   57.850      407
   57.925      375
   58.000      399
   58.075      384
   58.150      397
   58.225      409
   58.300      387
   58.375      389
   58.450      385
   58.525      370
   58.600      336
   58.675      367
   58.750      405
   58.825      406
   58.900      402
   58.975      409
   59.050      343
   59.125      369
   59.200      351
   59.275      429
   59.350      365
   59.425      376
   59.500      386
   59.575      367
   59.650      356
   59.725      388
   59.800      361
   59.875      398
   59.950      549
   60.025     1751
   60.100     1428
   60.175      461
   60.250      382
   60.325      373
   60.400      393
   60.475      357
   60.550      375
   60.625      381
   60.700      389
   60.775      383
   60.850      392
   60.925      395
   61.000      358
   61.075      349
   61.150      375
   61.225      376
   61.300      394
   61.375      375
   61.450      380
   61.525      381
   61.600      372
   61.675      391
   61.750      412
   61.825      386
   61.900      381
   61.975      358
   62.050      362
   62.125      373
   62.200      412
   62.275      414
   62.350      344
   62.425      350
   62.500      385
   62.575      411
   62.650      381
   62.725      359
   62.800      383
   62.875      351
   62.950      399
   63.025      342
   63.100      372
   63.175      381
   63.250      358
   63.325      356
   63.400      344
   63.475      354
   63.550      351
   63.625      358
   63.700      342
   63.775      364
   63.850      357
   63.925      353
   64.000      357
   64.075      526
   64.150      660
   64.225      427
   64.300      372
   64.375      369
   64.450      369
   64.525      355
   64.600      361
   64.675      387
   64.750      402
   64.825      333
   64.900      340
   64.975      352
   65.050      366
   65.125      386
   65.200      352
   65.275      344
   65.350      343
   65.425      350
   65.500      364
   65.575      352
   65.650      368
   65.725      394
   65.800      371
   65.875      408
   65.950      434
   66.025      356
   66.100      357
   66.175      359
   66.250      332
   66.325      385
   66.400      328
   66.475      352
   66.550      363
   66.625      367
   66.700      323
   66.775      336
   66.850      355
   66.925      359
   67.000      349
   67.075      343
   67.150      346
   67.225      338
   67.300      340
   67.375      340
   67.450      362
   67.525      342
   67.600      360
   67.675      344
   67.750      465
   67.825     1142
   67.900     1067
   67.975      436
   68.050      370
   68.125      438
   68.200      875
   68.275     1322
   68.350      812
   68.425      983
   68.500      773
   68.575      367
   68.650      348
   68.725      323
   68.800      321
   68.875      335
   68.950      326
   69.025      339
   69.100      308
   69.175      309
   69.250      326
   69.325      310
   69.400      309
   69.475      323
   69.550      335
   69.625      324
   69.700      345
   69.775      335
   69.850      326
   69.925      327
   70.000      322
   70.075      288
   70.150      312
   70.225      331
   70.300      307
   70.375      315
   70.450      309
   70.525      331
   70.600      330
   70.675      320
   70.750      321
   70.825      323
   70.900      279
   70.975      316
   71.050      297
   71.125      330
   71.200      341
   71.275      306
   71.350      295
   71.425      309
   71.500      306
   71.575      312
   71.650      309
   71.725      292
   71.800      325
   71.875      268
   71.950      309
   72.025      316
   72.100      321
   72.175      309
   72.250      304
   72.325      308
   72.400      296
   72.475      312
   72.550      311
   72.625      305
   72.700      280
   72.775      294
   72.850      285
   72.925      323
   73.000      290
   73.075      290
   73.150      318
   73.225      298
   73.300      309
   73.375      316
   73.450      282
   73.525      586
   73.600      582
   73.675      368
   73.750      325
   73.825      284
   73.900      290
   73.975      315
   74.050      294
   74.125      301
   74.200      293
   74.275      276
   74.350      320
   74.425      277
   74.500      287
   74.575      288
   74.650      283
   74.725      272
   74.800      266
   74.875      281
   74.950      292
   75.025      287
   75.100      280
   75.175      275
   75.250      277
   75.325      285
   75.400      301
   75.475      291
   75.550      275
   75.625      295
   75.700      473
   75.775      594
   75.850      477
   75.925      327
   76.000      290
   76.075      270
   76.150      267
   76.225      282
   76.300      258
   76.375      281
   76.450      261
   76.525      259
   76.600      249
   76.675      288
   76.750      255
   76.825      249
   76.900      283
   76.975      284
   77.050      265
   77.125      269
   77.200      289
   77.275      252
   77.350      249
   77.425      268
   77.500      263
   77.575      278
   77.650      283
   77.725      371
   77.800      398
   77.875      346
   77.950      278
   78.025      229
   78.100      273
   78.175      288
   78.250      276
   78.325      289
   78.400      247
   78.475      272
   78.550      249
   78.625      262
   78.700      252
   78.775      272
   78.850      266
   78.925      262
   79.000      257
   79.075      251
   79.150      294
   79.225      251
   79.300      244
   79.375      268
   79.450      283
   79.525      252
   79.600      268
   79.675      232
   79.750      250
   79.825      256
   79.900      310
   79.975      666
   80.050      594
   80.125      364
   80.200      351
   80.275      275
   80.350      265
   80.425      256
   80.500      281
   80.575      275
   80.650      270
   80.725      253
   80.800      239
   80.875      261
   80.950      245
   81.025      233
   81.100      254
   81.175      311
   81.250      452
   81.325      512
   81.400      317
   81.475      308
   81.550      404
   81.625      507
   81.700      436
   81.775      271
   81.850      265
   81.925      253
   82.000      238
   82.075      238
   82.150      238
   82.225      230
   82.300      225
   82.375      251
   82.450      245
   82.525      236
   82.600      244
   82.675      239
   82.750      243
   82.825      222
   82.900      239
   82.975      243
   83.050      238
   83.125      251
   83.200      236
   83.275      242
   83.350      224
   83.425      217
   83.500      230
   83.575      209
   83.650      243
   83.725      240
   83.800      224
   83.875      294
   83.950      402
   84.025      384
   84.100      267
   84.175      265
   84.250      233
   84.325      222
   84.400      231
   84.475      230
   84.550      225
   84.625      238
   84.700      232
   84.775      209
   84.850      248
   84.925      234
   85.000      243
   85.075      253
   85.150      233
   85.225      240
   85.300      201
   85.375      247
   85.450      213
   85.525      242
   85.600      219
   85.675      231
   85.750      220
   85.825      232
   85.900      216
   85.975      237
   86.050      219
   86.125      226
   86.200      206
   86.275      215
   86.350      229
   86.425      218
   86.500      224
   86.575      199
   86.650      219
   86.725      231
   86.800      232
   86.875      213
   86.950      231
   87.025      218
   87.100      221
   87.175      240
   87.250      213
   87.325      203
   87.400      227
   87.475      210
   87.550      253
   87.625      259
   87.700      231
   87.775      207
   87.850      210
   87.925      202
   88.000      230
   88.075      216
   88.150      212
   88.225      207
   88.300      220
   88.375      225
   88.450      228
   88.525      208
   88.600      212
   88.675      209
   88.750      214
   88.825      222
   88.900      230
   88.975      206
   89.050      224
   89.125      217
   89.200      218
   89.275      228
   89.350      212
   89.425      195
   89.500      209
   89.575      197
   89.650      231
   89.725      218
   89.800      198
   89.875      244
   89.950      218
   90.025      183
   90.100      209
   90.175      225
   90.250      222
   90.325      220
   90.400      188
   90.475      207
   90.550      187
   90.625      180
   90.700      200
   90.775      201
   90.850      249
   90.925      416
   91.000      456
   91.075      308
   91.150      191
   91.225      218
   91.300      188
   91.375      189
   91.450      191
   91.525      200
   91.600      213
   91.675      182
   91.750      206
   91.825      187
   91.900      173
   91.975      204
   92.050      210
   92.125      216
   92.200      183
   92.275      213
   92.350      191
   92.425      206
   92.500      217
   92.575      198
   92.650      201
   92.725      213
   92.800      210
   92.875      231
   92.950      239
   93.025      255
   93.100      206
   93.175      187
   93.250      192
   93.325      188
   93.400      189
   93.475      203
   93.550      211
   93.625      188
   93.700      197
   93.775      217
   93.850      180
   93.925      197
   94.000      188
   94.075      202
   94.150      210
   94.225      191
   94.300      195
   94.375      190
   94.450      186
   94.525      183
   94.600      212
   94.675      244
   94.750      364
   94.825      326
   94.900      217
   94.975      200
   95.050      202
   95.125      199
   95.200      230
   95.275      299
   95.350      238
   95.425      199
   95.500      199
   95.575      178
   95.650      190
   95.725      193
   95.800      177
   95.875      197
   95.950      183
   96.025      185
   96.100      182
   96.175      188
   96.250      226
   96.325      294
   96.400      320
   96.475      294
   96.550      196
   96.625      215
   96.700      183
   96.775      193
   96.850      174
   96.925      200
   97.000      174
   97.075      178
   97.150      191
   97.225      192
   97.300      183
   97.375      179
   97.450      179
   97.525      182
   97.600      185
   97.675      187
   97.750      177
   97.825      188
   97.900      192
   97.975      193
   98.050      184
   98.125      197
   98.200      179
   98.275      197
   98.350      199
   98.425      198
   98.500      174
   98.575      173
   98.650      200
   98.725      186
   98.800      213
   98.875      228
   98.950      279
   99.025      204
   99.100      195
   99.175      182
   99.250      180
   99.325      179
   99.400      175
   99.475      194
   99.550      185
   99.625      182
   99.700      174
   99.775      161
   99.850      188
   99.925      185
  100.000      175
  100.075      171
  100.105      206