File: XRD/DWTR_FL/original_unwashed.xyd
    0.000        6
    0.075        5
    0.150        5
    0.225        4
    0.300       10
    0.375        6
    0.450        7
    0.525        7
    0.600        5
    0.675        8
    0.750        4
    0.825        8
    0.900        4
    0.975       20
    1.050       87
    1.125     2474
    1.200     7275
    1.275     8598
    1.350     7356
    1.425     6534
    1.500     5871
    1.575     5184
    1.650     4903
    1.725     4555
    1.800     3939
    1.875     3833
    1.950     3513
    2.025     3245
    2.100     3059
    2.175     2997
    2.250     2875
    2.325     2657
    2.400     2562
    2.475     2447
    2.550     2326
    2.625     2272
    2.700     2158
    2.775     2076
    2.850     2070
    2.925     2072
    3.000     1931
    3.075     1922
    3.150     1896
    3.225     1785
    3.300     1774
    3.375     1811
    3.450     1740
    3.525     1628
    3.600     1688
    3.675     1599
    3.750     1580
    3.825     1590
    3.900     1585
    3.975     1516
    4.050     1521
    4.125     1512
    4.200     1460
    4.275     1438
    4.350     1361
    4.425     1409
    4.500     1389
    4.575     1371
    4.650     1291
    4.725     1360
    4.800     1379
    4.875     1287
    4.950     1244
    5.025     1311
    5.100     1285
    5.175     1236
    5.250     1304
    5.325     1233
    5.400     1246
    5.475     1175
    5.550     1250
    5.625     1213
    5.700     1197
    5.775     1092
    5.850     1161
    5.925     1083
    6.000     1113
    6.075     1158
    6.150     1118
    6.225     1131
    6.300     1087
    6.375     1136
    6.450     1101
    6.525     1066
    6.600     1106
    6.675     1069
    6.750     1039
    6.825     1000
    6.900      960
    6.975      973
    7.050     1024
    7.125     1024
    7.200      993
    7.275      986
    7.350      961
    7.425      915
    7.500      988
    7.575      951
    7.650      921
    7.725      929
    7.800      885
    7.875      883
    7.950      942
    8.025      888
    8.100      868
    8.175      892
    8.250      890
    8.325      849
    8.400      860
    8.475      815
    8.550      826
    8.625      845
    8.700      837
    8.775      840
    8.850      814
    8.925      848
    9.000      808
    9.075      802
    9.150      812
    9.225      802
    9.300      814
    9.375      775
    9.450      845
    9.525      839
    9.600      774
    9.675      802
    9.750      788
    9.825      785
    9.900      827
    9.975      786
   10.050      854
   10.125      767
   10.200      795
   10.275      784
   10.350      771
   10.425      770
   10.500      774
   10.575      718
   10.650      756
   10.725      741
   10.800      739
   10.875      764
   10.950      762
   11.025      752
   11.100      721
   11.175      758
   11.250      724
   11.325      777
   11.400      755
   11.475      787
   11.550      700
   11.625      753
   11.700      721
   11.775      748
   11.850      690
   11.925      722
   12.000      692
   12.075      708
   12.150      734
   12.225      719
   12.300      739
   12.375      681
   12.450      717
   12.525      684
   12.600      710
   12.675      688
   12.750      689
   12.825      684
   12.900      677
   12.975      639
   13.050      709
   13.125      669
   13.200      665
   13.275      668
   13.350      689
   13.425      645
   13.500      646
   13.575      658
   13.650      664
   13.725      673
   13.800      669
   13.875      614
   13.950      616
   14.025      604
   14.100      637
   14.175      721
   14.250      671
   14.325      633
   14.400      643
   14.475      638
   14.550      617
   14.625      618
   14.700      611
   14.775      618
   14.850      634
   14.925      599
   15.000      592
   15.075      626
   15.150      641
   15.225      638
   15.300      589
   15.375      618
   15.450      602
   15.525      670
   15.600      638
   15.675      601
   15.750      605
   15.825      606
   15.900      598
   15.975      612
   16.050      598
   16.125      588
   16.200      601
   16.275      574
   16.350      644
   16.425      604
   16.500      576
   16.575      587
   16.650      593
   16.725      592
   16.800      614
   16.875      595
   16.950      584
   17.025      578
   17.100      633
   17.175      613
   17.250      576
   17.325      595
   17.400      622
   17.475      553
   17.550      634
   17.625      611
   17.700      602
   17.775      577
   17.850      563
   17.925      562
   18.000      625
   18.075      605
   18.150      597
   18.225      562
   18.300      583
   18.375      546
   18.450      578
   18.525      605
   18.600      574
   18.675      562
   18.750      542
   18.825      551
   18.900      509
   18.975      528
   19.050      547
   19.125      536
   19.200      577
   19.275      518
   19.350      517
   19.425      553
   19.500      516
   19.575      566
   19.650      542
   19.725      558
   19.800      588
   19.875      534
   19.950      526
   20.025      562
   20.100      527
   20.175      527
   20.250      545
   20.325      525
   20.400      525
   20.475      516
   20.550      552
   20.625      620
   20.700      644
   20.775     1046
   20.850     1196
   20.925      522
   21.000      483
   21.075      510
   21.150      486
   21.225      480
   21.300      482
   21.375      502
   21.450      476
   21.525      501
   21.600      459
   21.675      474
   21.750      457
   21.825      445
   21.900      475
   21.975      498
   22.050      472
   22.125      491
   22.200      489
   22.275      509
   22.350      473
   22.425      477
   22.500      492
   22.575      451
   22.650      444
   22.725      444
   22.800      427
   22.875      422
   22.950      463
   23.025      420
   23.100      467
   23.175      414
   23.250      469
   23.325      446
   23.400      476
   23.475      414
   23.550      432
   23.625      474
   23.700      465
   23.775      419
   23.850      441
   23.925      462
   24.000      413
   24.075      447
   24.150      446
   24.225      454
   24.300      380
   24.375      404
   24.450      420
   24.525      449
   24.600      428
   24.675      398
   24.750      406
   24.825      410
   24.900      411
   24.975      424
   25.050      411
   25.125      405
   25.200      391
   25.275      415
   25.350      405
   25.425      397
   25.500      381
   25.575      410
   25.650      412
   25.725      388
   25.800      393
   25.875      407
   25.950      397
   26.025      386
   26.100      401
   26.175      398
   26.250      400
   26.325      388
   26.400      535
   26.475      848
   26.550     2025
   26.625     2393
   26.700      765
   26.775      358
   26.850      383
   26.925      355
   27.000      373
   27.075      359
   27.150      347
   27.225      350
   27.300      356
   27.375      343
   27.450      346
   27.525      362
   27.600      335
   27.675      362
   27.750      347
   27.825      342
   27.900      316
   27.975      376
   28.050      330
   28.125      323
   28.200      337
   28.275      363
   28.350      321
   28.425      339
   28.500      309
   28.575      330
   28.650      301
   28.725      337
   28.800      352
   28.875      338
   28.950      299
   29.025      300
   29.100      296
   29.175      302
   29.250      321
   29.325      315
   29.400      310
   29.475      328
   29.550      329
   29.625      288
   29.700      319
   29.775      288
   29.850      278
   29.925      304
   30.000      320
   30.075      296
   30.150      319
   30.225      295
   30.300      284
   30.375      303
   30.450      296
   30.525      269
   30.600      296
   30.675      275
   30.750      280
   30.825      277
   30.900      279
   30.975      311
   31.050      254
   31.125      266
   31.200      285
   31.275      279
   31.350      284
   31.425      262
   31.500      299
   31.575      263
   31.650      284
   31.725      267
   31.800      269
   31.875      267
   31.950      253
   32.025      256
   32.100      257
   32.175      261
   32.250      251
   32.325      269
   32.400      255
   32.475      244
   32.550      260
   32.625      246
   32.700      266
   32.775      255
   32.850      257
   32.925      266
   33.000      253
   33.075      251
   33.150      283
   33.225      230
   33.300      236
   33.375      249
   33.450      254
   33.525      235
   33.600      246
   33.675      238
   33.750      235
   33.825      243
   33.900      252
   33.975      233
   34.050      232
   34.125      236
   34.200      275
   34.275      259
   34.350      222
   34.425      251
   34.500      227
   34.575      236
   34.650      231
   34.725      256
   34.800      238
   34.875      248
   34.950      218
   35.025      219
   35.100      224
   35.175      251
   35.250      246
   35.325      248
   35.400      250
   35.475      234
   35.550      236
   35.625      224
   35.700      259
   35.775      245
   35.850      232
   35.925      230
   36.000      233
   36.075      239
   36.150      224
   36.225      227
   36.300      253
   36.375      292
   36.450      467
   36.525      468
   36.600      257
   36.675      239
   36.750      221
   36.825      240
   36.900      231
   36.975      226
   37.050      221
   37.125      225
   37.200      229
   37.275      226
   37.350      228
   37.425      227
   37.500      225
   37.575      238
   37.650      221
   37.725      222
   37.800      232
   37.875      231
   37.950      211
   38.025      226
   38.100      238
   38.175      230
   38.250      215
   38.325      230
   38.400      215
   38.475      228
   38.550      241
   38.625      220
   38.700      258
   38.775      206
   38.850      214
   38.925      222
   39.000      230
   39.075      219
   39.150      234
   39.225      208
   39.300      259
   39.375      411
   39.450      617
   39.525      254
   39.600      223
   39.675      222
   39.750      200
   39.825      218
   39.900      218
   39.975      233
   40.050      220
   40.125      238
   40.200      291
   40.275      356
   40.350      223
   40.425      213
   40.500      208
   40.575      211
   40.650      211
   40.725      216
   40.800      201
   40.875      189
   40.950      196
   41.025      219
   41.100      233
   41.175      233
   41.250      223
   41.325      219
   41.400      209
   41.475      220
   41.550      205
   41.625      221
   41.700      201
   41.775      216
   41.850      202
   41.925      193
   42.000      205
   42.075      196
   42.150      201
   42.225      193
   42.300      273
   42.375      493
   42.450      461
   42.525      230
   42.600      195
   42.675      190
   42.750      197
   42.825      178
   42.900      214
   42.975      209
   43.050      189
   43.125      188
   43.200      182
   43.275      187
   43.350      200
   43.425      197
   43.500      186
   43.575      186
   43.650      190
   43.725      217
   43.800      198
   43.875      211
   43.950      198
   44.025      211
   44.100      204
   44.175      204
   44.250      223
   44.325      200
   44.400      201
   44.475      194
   44.550      189
   44.625      192
   44.700      181
   44.775      193
   44.850      191
   44.925      193
   45.000      191
   45.075      195
   45.150      192
   45.225      193
   45.300      193
   45.375      187
   45.450      212
   45.525      174
   45.600      184
   45.675      267
   45.750      278
   45.825      205
   45.900      174
   45.975      187
   46.050      199
   46.125      179
   46.200      197
   46.275      192
   46.350      176
   46.425      169
   46.500      189
   46.575      197
   46.650      195
   46.725      192
   46.800      165
   46.875      176
   46.950      184
   47.025      199
   47.100      176
   47.175      178
   47.250      173
   47.325      161
   47.400      195
   47.475      169
   47.550      184
   47.625      152
   47.700      169
   47.775      178
   47.850      157
   47.925      167
   48.000      176
   48.075      165
   48.150      179
   48.225      172
   48.300      174
   48.375      172
   48.450      184
   48.525      170
   48.600      167
   48.675      177
   48.750      173
   48.825      179
   48.900      165
   48.975      165
   49.050      161
   49.125      171
   49.200      168
   49.275      175
   49.350      167
   49.425      176
   49.500      163
   49.575      152
   49.650      188
   49.725      156
   49.800      150
   49.875      165
   49.950      220
   50.025      496
   50.100      736
   50.175      287
   50.250      162
   50.325      164
   50.400      156
   50.475      159
   50.550      162
   50.625      184
   50.700      161
   50.775      165
   50.850      149
   50.925      158
   51.000      150
   51.075      133
   51.150      159
   51.225      139
   51.300      154
   51.375      161
   51.450      144
   51.525      154
   51.600      142
   51.675      135
   51.750      151
   51.825      153
   51.900      149
   51.975      147
   52.050      155
   52.125      146
   52.200      149
   52.275      166
   52.350      143
   52.425      153
   52.500      152
   52.575      151
   52.650      138
   52.725      140
   52.800      146
   52.875      144
   52.950      160
   53.025      149
   53.100      142
   53.175      144
   53.250      141
   53.325      147
   53.400      141
   53.475      150
   53.550      137
   53.625      144
   53.700      146
   53.775      130
   53.850      155
   53.925      138
   54.000      159
   54.075      146
   54.150      152
   54.225      145
   54.300      153
   54.375      145
   54.450      145
   54.525      133
   54.600      142
   54.675      163
   54.750      209
   54.825      184
   54.900      167
   54.975      161
   55.050      142
   55.125      127
   55.200      172
   55.275      209
   55.350      170
   55.425      135
   55.500      130
   55.575      149
   55.650      130
   55.725      128
   55.800      134
   55.875      143
   55.950      144
   56.025      129
   56.100      130
   56.175      139
   56.250      124
   56.325      125
   56.400      143
   56.475      135
   56.550      138
   56.625      132
   56.700      130
   56.775      130
   56.850      142
   56.925      136
   57.000      151
   57.075      132
   57.150      148
   57.225      143
   57.300      160
   57.375      139
   57.450      134
   57.525      131
   57.600      134
   57.675      137
   57.750      144
   57.825      134
   57.900      128
   57.975      133
   58.050      126
   58.125      125
   58.200      126
   58.275      152
   58.350      120
   58.425      129
   58.500      130
   58.575      112
   58.650      134
   58.725      120
   58.800      129
   58.875      132
   58.950      126
   59.025      127
   59.100      124
   59.175      115
   59.250      130
   59.325      111
   59.400      116
   59.475      139
   59.550      118
   59.625      137
   59.700      136
   59.775      239
   59.850      399
   59.925      474
   60.000      214
   60.075      138
   60.150      127
   60.225      144
   60.300      144
   60.375      132
   60.450      146
   60.525      114
   60.600      123
   60.675      129
   60.750      129
   60.825      120
   60.900      121
   60.975      127
   61.050      127
   61.125      134
   61.200      132
   61.275      125
   61.350      133
   61.425      128
   61.500      136
   61.575      126
   61.650      130
   61.725      135
   61.800      130
   61.875      128
   61.950      124
   62.025      132
   62.100      134
   62.175      128
   62.250      138
   62.325      147
   62.400      114
   62.475      137
   62.550      137
   62.625      138
   62.700      126
   62.775      126
   62.850      120
   62.925      141
   63.000      140
   63.075      107
   63.150      117
   63.225      125
   63.300      133
   63.375      132
   63.450      151
   63.525      114
   63.600      123
   63.675      130
   63.750      131
   63.825      144
   63.900      158
   63.975      196
   64.050      164
   64.125      139
   64.200      129
   64.275      128
   64.350      126
   64.425      118
   64.500      132
   64.575      124
   64.650      143
   64.725      119
   64.800      132
   64.875      122
   64.950      131
   65.025      124
   65.100      122
   65.175      111
   65.250      131
   65.325      111
   65.400      122
   65.475      123
   65.550      123
   65.625      141
   65.700      142
   65.775      144
   65.850      118
   65.925      125
   66.000      129
   66.075      127
   66.150      125
   66.225      126
   66.300      127
   66.375      120
   66.450      129
   66.525      117
   66.600      127
   66.675      114
   66.750      128
   66.825      100
   66.900      109
   66.975      116
   67.050      104
   67.125      114
   67.200      130
   67.275      126
   67.350      122
   67.425      118
   67.500      132
   67.575      188
   67.650      301
   67.725      302
   67.800      166
   67.875      141
   67.950      160
   68.025      266
   68.100      404
   68.175      323
   68.250      227
   68.325      206
   68.400      131
   68.475      111
   68.550      119
   68.625      131
   68.700      122
   68.775      124
   68.850      120
   68.925      100
   69.000      109
   69.075      103
   69.150      102
   69.225      126
   69.300      109
   69.375      107
   69.450      128
   69.525      110
   69.600      104
   69.675      115
   69.750      101
   69.825      115
   69.900      119
   69.975       97
   70.050      117
   70.125      111
   70.200      112
   70.275      113
   70.350      107
   70.425      112
   70.500       99
   70.575      111
   70.650      115
   70.725      119
   70.800      108
   70.875      112
   70.950      139
   71.025      119
   71.100      110
   71.175       90
   71.250      114
   71.325       94
   71.400      105
   71.475      111
   71.550      111
   71.625      127
   71.700      112
   71.775       95
   71.850      123
   71.925       99
   72.000      104
   72.075      122
   72.150       86
   72.225      114
   72.300       97
   72.375      102
   72.450       90
   72.525      110
   72.600      107
   72.675      113
   72.750      115
   72.825      110
   72.900       95
   72.975       96
   73.050       92
   73.125      100
   73.200      111
   73.275      121
   73.350      160
   73.425      147
   73.500      128
   73.575      156
   73.650      107
   73.725      109
   73.800      100
   73.875      103
   73.950       83
   74.025      110
   74.100      100
   74.175       88
   74.250       96
   74.325      114
   74.400      118
   74.475       94
   74.550      103
   74.625      111
   74.700       97
   74.775       98
   74.850       97
   74.925      104
   75.000      109
   75.075      107
   75.150      104
   75.225      102
   75.300      107
   75.375       96
   75.450      125
   75.525      181
   75.600      183
   75.675      151
   75.750      123
   75.825       97
   75.900       98
   75.975      107
   76.050       87
   76.125      100
   76.200      105
   76.275      105
   76.350       97
   76.425      103
   76.500       96
   76.575      107
   76.650       88
   76.725      101
   76.800      111
   76.875       97
   76.950       98
   77.025       97
   77.100      106
   77.175      101
   77.250      108
   77.325      109
   77.400       91
   77.475      126
   77.550      132
   77.625      144
   77.700      114
   77.775       98
   77.850       92
   77.925       85
   78.000       90
   78.075      106
   78.150       95
   78.225       97
   78.300       89
   78.375       97
   78.450       95
   78.525      103
   78.600      106
   78.675       93
   78.750       95
   78.825      108
   78.900       75
   78.975      103
   79.050       84
   79.125       95
   79.200       83
   79.275      112
   79.350       89
   79.425       85
   79.500       99
   79.575      111
   79.650      108
   79.725      156
   79.800      175
   79.875      152
   79.950      116
   80.025      104
   80.100       95
   80.175       87
   80.250       96
   80.325       99
   80.400       95
   80.475       96
   80.550      101
   80.625       87
   80.700       99
   80.775      102
   80.850       89
   80.925      110
   81.000      132
   81.075      167
   81.150      135
   81.225      111
   81.300      129
   81.375      161
   81.450      161
   81.525      123
   81.600       99
   81.675      105
   81.750      100
   81.825       91
   81.900       93
   81.975       96
   82.050       70
   82.125      102
   82.200       94
   82.275       88
   82.350       99
   82.425       95
   82.500       84
   82.575       81
   82.650       82
   82.725       93
   82.800       84
   82.875       93
   82.950       86
   83.025       81
   83.100       83
   83.175       82
   83.250       91
   83.325       81
   83.400       91
   83.475       95
   83.550       88
   83.625       94
   83.700      133
   83.775      157
   83.850      102
   83.925       97
   84.000       84
   84.075       77
   84.150       85
   84.225       77
   84.300       93
   84.375       71
   84.450       87
   84.525       91
   84.600       76
   84.675       81
   84.750       85
   84.825       88
   84.900       92
   84.975       81
   85.050       87
   85.125       77
   85.200       76
   85.275       88
   85.350       87
   85.425       82
   85.500       88
   85.575       77
   85.650       77
   85.725       90
   85.800       78
   85.875       79
   85.950       82
   86.025       87
   86.100       86
   86.175       88
   86.250       99
   86.325       87
   86.400       80
   86.475       87
   86.550       87
   86.625       79
   86.700       78
   86.775       82
   86.850       99
   86.925       96
   87.000       68
   87.075       83
   87.150       81
   87.225       81
   87.300       85
   87.375       92
   87.450       98
   87.525       86
   87.600       65
   87.675       84
   87.750       84
   87.825       73
   87.900       93
   87.975       89
   88.050       83
   88.125       74
   88.200       95
   88.275       90
   88.350       91
   88.425       71
   88.500       75
   88.575       76
   88.650       71
   88.725       77
   88.800       73
   88.875       79
   88.950       73
   89.025       72
   89.100       73
   89.175       76
   89.250       83
   89.325       80
   89.400       69
   89.475       67
   89.550       87
   89.625       67
   89.700       68
   89.775       91
   89.850       71
   89.925       81
   90.000       68
   90.075       70
   90.150       91
   90.225       70
   90.300       58
   90.375       78
   90.450       72
   90.525       92
   90.600       77
   90.675      127
   90.750      171
   90.825      135
   90.900      101
   90.975       93
   91.050       91
   91.125       71
   91.200       61
   91.275       75
   91.350       83
   91.425       83
   91.500       85
   91.575       69
   91.650       68
   91.725       73
   91.800       79
   91.875       73
   91.950       78
   92.025       79
   92.100       64
   92.175       81
   92.250       87
   92.325       73
   92.400       93
   92.475       81
   92.550       79
   92.625       93
   92.700      102
   92.775       90
   92.850       81
   92.925       86
   93.000       73
   93.075       74
   93.150       83
   93.225       74
   93.300       68
   93.375       65
   93.450       78
   93.525       63
   93.600       83
   93.675       73
   93.750       79
   93.825       68
   93.900       83
   93.975       85
   94.050       93
   94.125       70
   94.200       80
   94.275       73
   94.350       74
   94.425       81
   94.500      106
   94.575       84
   94.650       95
   94.725       89
   94.800       75
   94.875       86
   94.950       88
   95.025      113
   95.100       89
   95.175       82
   95.250       76
   95.325       78
   95.400       83
   95.475       66
   95.550       65
   95.625       75
   95.700       72
   95.775       81
   95.850       70
   95.925       72
   96.000       73
   96.075      109
   96.150      100
   96.225      105
   96.300       81
   96.375       79
   96.450       75
   96.525       82
   96.600       70
   96.675       89
   96.750       66
   96.825       71
   96.900       67
   96.975       65
   97.050       68
   97.125       76
   97.200       66
   97.275       67
   97.350       75
   97.425       85
   97.500       74
   97.575       84
   97.650       78
   97.725       58
   97.800       68
   97.875       92
   97.950       69
   98.025       82
   98.100       75
   98.175       63
   98.250       75
   98.325       70
   98.400       79
   98.475       74
   98.550       91
   98.625      106
   98.700       79
   98.775       78
   98.850       77
   98.925       78
   99.000       63
   99.075       69
   99.150       66
   99.225       63
   99.300       60
   99.375       86
   99.450       75
   99.525       71
   99.600       75
   99.675       76
   99.750       58
   99.825       64
   99.900       60
   99.975       64
  100.050       74
  100.125       69
  100.200       73
  100.275       75
  100.350       73
  100.425       80
  100.500       65
  100.575       61
  100.650       76
  100.725       74
  100.800       67
  100.875       73
  100.950       77
  101.025       60
  101.100       64
  101.175       60
  101.250       86
  101.325       63
  101.400       64
  101.475       84
  101.550       64
  101.625       67
  101.700       67
  101.775       67
  101.850       64
  101.925       76
  102.000       71
  102.075       81
  102.150       83
  102.225       90
  102.300       89
  102.375       86
  102.450       87
  102.525       99
  102.600       66
  102.675       75
  102.750       75
  102.825       51
  102.900       76
  102.975       61
  103.050       57
  103.125       52
  103.200       61
  103.275       67
  103.350       69
  103.425       52
  103.500       70
  103.575       78
  103.650       67
  103.725       77
  103.800       77
  103.875       89
  103.950       64
  104.025       83
  104.100       82
  104.115       81