File: TGA-MS/DWTRNC.D/tic_front.csv
D:\GAILLARD\WALLACE_SAMUEL\DWTRNC.D 22 Sep 21  12:50 pm
Start of data points
0.0960333,142138
0.183667,133469
0.2713,129745
0.358933,130963
0.44655,131575
0.534183,132187
0.621817,132769
0.70945,133327
0.797083,135246
0.8847,134105
0.972333,133825
1.05997,134498
1.1476,135262
1.23523,135087
1.32287,75339
1.41048,46464
1.49812,32367
1.58575,31317
1.67338,30503
1.76102,30000
1.84865,29907
1.93627,30776
2.0239,30157
2.11153,29796
2.19917,29811
2.2868,30403
2.37442,557562
2.46205,33162
2.54968,32065
2.63732,31005
2.72495,30259
2.81258,30913
2.9002,30134
2.98783,30787
3.07547,29435
3.1631,30159
3.25073,30636
3.33835,2283448
3.42598,32908
3.51362,32078
3.60125,30165
3.68888,29782
3.77652,30386
3.86413,30366
3.95177,30024
4.0394,30286
4.12703,30822
4.21467,30418
4.3023,31586
4.38992,81948
4.47755,32235
4.56518,31531
4.65282,30445
4.74045,29960
4.82807,30195
4.9157,29811
5.00333,29348
5.09097,29493
5.1786,29705
5.26623,29268
5.35385,2530199
5.44148,31403
5.52912,32062
5.61675,29989
5.70438,29962
5.79202,30250
5.87963,29816
5.96727,30333
6.0549,30307
6.14253,29958
6.23017,30398
6.31778,56226
6.40542,36352
6.49305,31411
6.58068,30555
6.66832,30364
6.75595,29767
6.84357,29735
6.9312,30300
7.01883,29673
7.10647,30456
7.1941,30172
7.28173,30194
7.36935,763181
7.45698,32184
7.54462,31251
7.63225,29831
7.71988,30564
7.8075,29723
7.89513,29558
7.98277,29648
8.0704,30418
8.15803,29342
8.24567,30024
8.33328,1159492
8.42092,33633
8.50855,31657
8.59618,30441
8.68382,29338
8.77143,29571
8.85907,29593
8.9467,29243
9.03433,29795
9.12197,30114
9.2096,29789
9.29722,31744
9.38485,117087
9.47248,32008
9.56012,31539
9.64775,29505
9.73538,29642
9.823,29744
9.91063,30227
9.99827,30614
10.0859,30248
10.1735,30079
10.2612,29853
10.3488,2419153
10.4364,32336
10.5241,31659
10.6117,30111
10.6993,30584
10.7869,30398
10.8746,29441
10.9622,30384
11.0498,29505
11.1375,29767
11.2251,29902
11.3127,33709
11.4004,41528
11.488,32164
11.5756,31480
11.6633,29539
11.7509,30425
11.8385,30747
11.9261,30058
12.0138,30138
12.1014,30208
12.189,31164
12.2767,29834
12.3643,1180842
12.4519,31895
12.5396,31134
12.6272,30165
12.7148,29421
12.8024,30394
12.8901,29687
12.9777,29268
13.0653,29777
13.153,30296
13.2406,29949
13.3282,441779
13.4159,34812
13.5035,31538
13.5911,30937
13.6788,29613
13.7664,30251
13.854,30601
13.9416,30042
14.0293,29216
14.1169,30048
14.2045,30820
14.2922,30619
14.3798,200313
14.4674,32406
14.5551,31696
14.6427,30170
14.7303,30150
14.8179,29690
14.9056,30121
14.9932,29774
15.0808,30180
15.1685,28817
15.2561,29228
15.3437,2197168
15.4314,33505
15.519,30918
15.6066,30497
15.6942,29988
15.7819,29738
15.8695,30037
15.9571,29405
16.0448,30242
16.1324,30410
16.22,30894
16.3076,31799
16.3953,49687
16.4829,32514
16.5706,31759
16.6582,29992
16.7458,29673
16.8334,29884
16.9211,29861
17.0087,30758
17.0963,30860
17.1839,29111
17.2716,30053
17.3592,1697115
17.4469,32905
17.5345,32211
17.6221,30870
17.7097,29072
17.7974,30355
17.885,30677
17.9726,30107
18.0603,30249
18.1479,29617
18.2355,30093
18.3232,138230
18.4108,35295
18.4984,32274
18.5861,31195
18.6737,29510
18.7613,29455
18.8489,29869
18.9366,30078
19.0242,30387
19.1118,30536
19.1995,30045
19.2871,31099
19.3747,372533
19.4624,32787
19.55,32208
19.6376,30534
19.7252,30156
19.8129,29915
19.9005,30297
19.9881,30157
20.0758,29775
20.1634,30078
20.251,30001
20.3387,1727346
20.4263,33106
20.5139,31184
20.6016,30442
20.6892,30369
20.7768,29666
20.8644,30618
20.9521,29831
21.0397,29889
21.1273,30683
21.215,30047
21.3026,31453
21.3902,72637
21.4779,32426
21.5655,31358
21.6531,29812
21.7407,29789
21.8284,30110
21.916,30214
22.0036,30022
22.0913,29971
22.1789,29927
22.2665,30327
22.3542,2135806
22.4418,32519
22.5294,31457
22.617,29437
22.7047,30087
22.7923,30389
22.8799,29873
22.9676,30119
23.0552,29820
23.1428,29950
23.2305,29930
23.3181,53427
23.4057,37759
23.4934,31813
23.581,31689
23.6686,30451
23.7562,29864
23.8439,30091
23.9315,30025
24.0191,30104
24.1068,29924
24.1944,29493
24.282,30505
24.3697,685089
24.4573,32467
24.5449,32555
24.6325,29844
24.7202,30104
24.8078,29871
24.8954,30221
24.9831,30372
25.0707,29332
25.1583,30427
25.246,29529
25.3336,1013334
25.4212,33647
25.5089,31580
25.5965,30935
25.6841,30189
25.7717,30670
25.8594,29846
25.947,30536
26.0346,30295
26.1223,29609
26.2099,29433
26.2975,32015
26.3852,113673
26.4728,31926
26.5604,31717
26.648,29457
26.7357,29813
26.8233,30546
26.9109,30049
26.9986,30594
27.0862,30151
27.1738,30825
27.2615,29652
27.3491,2357624
27.4367,32968
27.5244,32023
27.612,30818
27.6996,29788
27.7872,30174
27.8749,30237
27.9625,30691
28.0501,29676
28.1378,30526
28.2254,30331
28.313,33193
28.4007,41191
28.4883,32507
28.5759,31620
28.6635,29643
28.7512,30267
28.8388,30696
28.9264,30428
29.0141,30248
29.1017,30316
29.1893,30487
29.277,30034
29.3646,1201066
29.4522,32241
29.5398,32228
29.6275,30312
29.7151,30198
29.8027,29581
29.8904,30189
29.978,30297
30.0656,30065
30.1533,29836
30.2409,30535
30.3285,447152
30.4162,34172
30.5038,32090
30.5914,30666
30.679,30246
30.7667,29846
30.8543,30218
30.9419,29801
31.0296,30143
31.1172,30055
31.2048,29880
31.2925,30769
31.3801,218528
31.4677,32387
31.5553,31749
31.643,30278
31.7306,30425
31.8182,29819
31.9059,29720
31.9935,30709
32.0811,29386
32.1688,29784
32.2564,29961
32.344,2306190
32.4316,32612
32.5193,31651
32.6069,29705
32.6945,30061
32.7822,30619
32.8698,29734
32.9574,30476
33.0451,29164
33.1327,29782
33.2203,30412
33.3079,31377
33.3956,52012
33.4832,31970
33.5708,31682
33.6585,29903
33.7461,29824
33.8337,30326
33.9214,30320
34.009,29731
34.0966,29728
34.1842,30242
34.2719,29716
34.3595,1836499
34.4472,31772
34.5348,31585
34.6224,29956
34.71,30011
34.7977,30170
34.8853,30749
34.9729,29749
35.0605,30213
35.1482,30421
35.2358,30453
35.3235,150066
35.4111,35513
35.4987,31414
35.5863,31048
35.674,30197
35.7616,29514
35.8492,30892
35.9369,30099
36.0245,29778
36.1121,30521
36.1998,30142
36.2874,30291
36.375,428750
36.4626,32734
36.5503,32143
36.6379,30769
36.7255,29404
36.8132,30048
36.9008,30197
36.9884,30095
37.0761,30011
37.1637,29432
37.2513,30293
37.339,1862521
37.4266,33477
37.5142,31818
37.6018,30502
37.6895,30576
37.7771,30098
37.8647,30566
37.9524,29697
38.04,30243
38.1276,30921
38.2153,29792
38.3029,31405
38.3905,78242
38.4781,31179
38.5658,31413
38.6534,29915
38.741,29457
38.8287,30112
38.9163,29136
39.0039,29728
39.0916,30285
39.1792,30089
39.2668,29882
39.3545,2369389
39.4421,32101
39.5297,32315
39.6173,29586
39.705,29738
39.7926,29990
39.8802,29758
39.9678,29898
40.0555,31080
40.1431,30964
40.2308,29939
40.3184,51644
40.406,38207
40.4936,31705
40.5813,31282
40.6689,29671
40.7565,29540
40.8442,29769
40.9318,30090
41.0194,30256
41.1071,29095
41.1947,30199
41.2823,30191
41.37,845796
41.4576,32228
41.5452,31837
41.6328,30012
41.7205,30418
41.8081,29784
41.8957,29539
41.9834,29663
42.071,30492
42.1586,29846
42.2463,29973
42.3339,1093412
42.4215,33337
42.5091,31856
42.5968,30671
42.6844,29430
42.772,29701
42.8597,30450
42.9473,29783
43.0349,29896
43.1226,29394
43.2102,30437
43.2978,31245
43.3854,134013
43.4731,31781
43.5607,32245
43.6483,30199
43.736,30721
43.8236,29441
43.9112,29634
43.9989,30063
44.0865,29771
44.1741,30344
44.2617,29821
44.3494,2628534
44.437,32679
44.5246,31049
44.6123,29608
44.6999,29250
44.7875,29272
44.8752,29763
44.9628,30055
45.0504,30048
45.1381,30088
45.2257,29354
45.3133,32897
45.4009,43291
45.4886,32146
45.5762,31009
45.6638,29483
45.7515,30342
45.8391,29813
45.9267,29024
46.0144,29071
46.102,30064
46.1896,28846
46.2773,29436
46.3649,1468704
46.4525,31559
46.5401,31601
46.6278,30040
46.7154,30179
46.803,30002
46.8907,29774
46.9783,30128
47.0659,28906
47.1536,29977
47.2412,30012
47.3288,453936
47.4164,34299
47.5041,30923
47.5917,30435
47.6793,29369
47.767,29829
47.8546,29299
47.9422,29398
48.0299,29811
48.1175,30070
48.2051,29264
48.2927,30342
48.3804,254634
48.468,31618
48.5556,31820
48.6433,30012
48.7309,30600
48.8185,29591
48.9062,29653
48.9938,30352
49.0814,30051
49.1691,29863
49.2567,30638
49.3443,2516478
49.4319,31927
49.5196,31586
49.6072,29878
49.6948,29182
49.7825,29338
49.8701,29753
49.9577,30149
50.0453,29720
50.133,29678
50.2206,29216
50.3082,31262
50.3959,55875
50.4835,31213
50.5711,31522
50.6588,29080
50.7464,29577
50.834,29100
50.9217,29936
51.0093,30268
51.0969,29790
51.1846,29556
51.2722,29465
51.3598,2131656
51.4474,31568
51.5351,31839
51.6227,30082
51.7103,29140
51.798,29721
51.8856,29638
51.9732,29644
52.0609,29986
52.1485,30114
52.2361,29983
52.3237,142315
52.4114,34653
52.499,31973
52.5866,29550
52.6743,29899
52.7619,30120
52.8495,30347
52.9372,29729
53.0248,29924
53.1124,29438
53.2001,30269
53.2877,30530
53.3753,511182
53.4629,31661
53.5506,31417
53.6382,29561
53.7258,29501
53.8135,29306
53.9011,29319
53.9887,29751
54.0764,29680
54.164,30188
54.2516,29791
54.3392,2041788
54.4269,31819
54.5145,31718
54.6021,29474
54.6898,29548
54.7774,30188
54.865,29820
54.9527,29641
55.0403,29813
55.1279,29423
55.2155,29012
55.3032,31598
55.3908,85542
55.4784,31612
55.5661,31589
55.6537,29421
55.7413,29301
55.829,29103
55.9166,30028
56.0042,29147
56.0919,28640
56.1795,29606
56.2671,28939
56.3547,2625602
56.4424,32165
56.53,31181
56.6176,29503
56.7052,29070
56.7929,30276
56.8805,29392
56.9682,29829
57.0558,30075
57.1434,29336
57.231,28859
57.3187,51610
57.4063,37324
57.4939,31550
57.5816,29517
57.6692,30297
57.7568,29995
57.8445,29229
57.9321,29471
58.0197,29735
58.1074,29515
58.195,29808
58.2826,29525
58.3702,998257
58.4579,32225
58.5455,31710
58.6331,30224
58.7208,29401
58.8084,29320
58.896,29776
58.9837,29293
59.0713,29292
59.1589,29677
59.2465,29406
59.3342,1211118
59.4218,33314
59.5094,31517
59.5971,29925
59.6847,29683
59.7723,29139
59.86,30188
59.9476,29380
60.0352,29291
60.1229,29165
60.2105,29477
60.2981,30857
60.3857,155349
60.4734,32016
60.561,31430
60.6486,28913
60.7363,29943
60.8239,29499
60.9115,29123
60.9992,29739
61.0868,29115
61.1744,29064
61.262,29305
61.3497,2842184
61.4373,31203
61.5249,31371
61.6126,30170
61.7002,29281
61.7878,29579
61.8755,29123
61.9631,29203
62.0507,29345
62.1383,29444
62.226,29902
62.3136,32577
62.4012,44170
62.4889,31659
62.5765,30389
62.6641,29393
62.7518,29588
62.8394,28829
62.927,29394
63.0147,29283
63.1023,29239
63.1899,30035
63.2775,29477
63.3652,1638817
63.4528,32027
63.5404,31695
63.6281,29321
63.7157,29421
63.8033,28989
63.891,28770
63.9786,29306
64.0662,29955
64.1538,29914
64.2415,29334
64.3291,472145
64.4167,33355
64.5044,31792
64.592,29791
64.6796,29655
64.7673,29428
64.8549,29059
64.9425,30213
65.0302,29569
65.1178,30065
65.2054,29570
65.293,30327
65.3807,289641
65.4683,31732
65.5559,30596
65.6436,29457
65.7312,28800
65.8188,28840
65.9065,28982
65.9941,29650
66.0817,29718
66.1693,29233
66.257,29464
66.3446,2675231
66.4322,31299
66.5199,30794
66.6075,29130
66.6951,29976
66.7827,28766
66.8704,28925
66.958,28856
67.0456,28936
67.1333,29592
67.2209,29084
67.3085,31668
67.3962,57315
67.4838,31983
67.5714,29854
67.659,28969
67.7467,29273
67.8343,29111
67.9219,28835
68.0096,29197
68.0972,29484
68.1848,29246
68.2725,29838
68.3601,2374415
68.4477,31087
68.5354,30721
68.623,29424
68.7106,28996
68.7982,30026
68.8859,29225
68.9735,29160
69.0611,29637
69.1488,29488
69.2364,28933
69.324,146657
69.4117,34251
69.4993,30996
69.5869,30232
69.6745,29153
69.7622,30056
69.8498,29202
69.9374,29503
70.0251,28548
70.1127,29316
70.2003,29720
70.288,29976
70.3756,618912
70.4632,31748
70.5508,30862
70.6385,29836
70.7261,28855
70.8137,29525
70.9014,29454
70.989,29399
71.0766,28961
71.1643,29733
71.2519,29408
71.3395,2291321
71.4272,32775
71.5148,31070
71.6024,28998
71.69,29198
71.7777,29611
71.8653,28961
71.953,29364
72.0406,29376
72.1282,29116
72.2158,29262
72.3035,31222
72.3911,97053
72.4787,31067
72.5664,30983
72.654,29040
72.7416,28918
72.8293,29165
72.9169,29088
73.0045,28763
73.0921,28914
73.1798,29272
73.2674,29833
73.355,3181405
73.4427,32186
73.5303,30832
73.6179,29761
73.7056,29547
73.7932,29238
73.8808,28792
73.9685,29348
74.0561,29340
74.1437,29088
74.2313,29421
74.319,53105
74.4066,38043
74.4942,30678
74.5819,30886
74.6695,29043
74.7571,29221
74.8448,29380
74.9324,28634
75.02,29219
75.1076,28971
75.1953,29442
75.2829,29168
75.3705,1469499
75.4582,31515
75.5458,30514
75.6334,29315
75.7211,28669
75.8087,28620
75.8963,28726
75.9839,29453
76.0716,29531
76.1592,29367
76.2468,28767
76.3345,1547159
76.4221,32570
76.5097,30524
76.5974,29884
76.685,29310
76.7726,28712
76.8603,28860
76.9479,29143
77.0355,28653
77.1231,29557
77.2108,29172
77.2984,29665
77.386,225209
77.4737,30525
77.5613,30630
77.6489,29662
77.7366,28986
77.8242,28605
77.9118,29271
77.9994,29071
78.0871,29353
78.1747,28695
78.2623,29132
78.35,4126243
78.4376,31074
78.5252,30764
78.6129,29035
78.7005,28926
78.7881,28736
78.8758,28610
78.9634,28783
79.051,28897
79.1386,29212
79.2263,29101
79.3139,32935
79.4015,50630
79.4892,30726
79.5768,32189
79.6644,29471
79.752,28645
79.8397,28881
79.9273,28923
80.0149,29144
80.1026,28536
80.1902,29281
80.2778,29354
80.3655,3103163
80.4531,31663
80.5407,30475
80.6283,29027
80.716,28478
80.8036,28654
80.8912,28755
80.9789,28536
81.0665,29724
81.1541,29177
81.2418,29024
81.3294,684510
81.417,33999
81.5046,30322
81.5923,29405
81.6799,29232
81.7676,28164
81.8552,28447
81.9428,29284
82.0304,29539
82.1181,28551
82.2057,28376
82.2933,29428
82.3809,542853
82.4686,31109
82.5562,30659
82.6439,28931
82.7315,28956
82.8191,29035
82.9067,28084
82.9944,28599
83.082,28136
83.1696,29174
83.2573,28448
83.3449,3351612
83.4325,32110
83.5202,31459
83.6078,29129
83.6954,28642
83.7831,29497
83.8707,28800
83.9583,28100
84.0459,29235
84.1336,29297
84.2212,29521
84.3088,30153
84.3965,63966
84.4841,29991
84.5717,30573
84.6594,28560
84.747,29216
84.8346,29529
84.9222,28158
85.0099,28214
85.0975,28866
85.1851,28521
85.2728,28881
85.3604,2745818
85.448,31401
85.5357,30797
85.6233,29127
85.7109,29413
85.7986,29099
85.8862,29316
85.9738,28352
86.0614,28855
86.1491,29548
86.2367,29189
86.3243,172459
86.412,34769
86.4996,30014
86.5872,28861
86.6749,29298
86.7625,29056
86.8501,28399
86.9377,28689
87.0254,27998
87.113,29108
87.2006,28018
87.2883,29576
87.3759,735839
87.4635,30378
87.5512,30564
87.6388,28664
87.7264,29686
87.814,29157
87.9017,28525
87.9893,28913
88.0769,28332
88.1646,29128
88.2522,28631
88.3398,2436644
88.4275,31970
88.5151,30716
88.6027,29677
88.6904,29442
88.778,28812
88.8656,28439
88.9532,28575
89.0409,28700
89.1285,28484
89.2161,28706
89.3038,29923
89.3914,105434
89.479,30765
89.5667,29751
89.6543,30040
89.7419,29177
89.8295,28024
89.9172,28073
90.0048,28354
90.0924,29079
90.1801,28023
90.2677,28289
90.3553,3147204
90.443,30159
90.5306,30517
90.6182,28863
90.7058,29369
90.7935,29068
90.8811,27535
90.9687,29341
91.0564,28686
91.144,29049
91.2316,28826
91.3193,55218
91.4069,38465
91.4945,30195
91.5821,29941
91.6698,28773
91.7574,28937
91.845,28840
91.9327,28092
92.0203,29068
92.1079,28204
92.1956,28444
92.2832,28583
92.3708,1371265
92.4584,29816
92.5461,30607
92.6337,28081
92.7214,28485
92.809,28569
92.8966,28129
92.9842,29206
93.0719,28722
93.1595,27974
93.2471,28505
93.3348,1532716
93.4224,31835
93.51,30096
93.5977,28234
93.6853,28516
93.7729,28294
93.8605,28037
93.9482,28492
94.0358,28960
94.1234,27870
94.2111,28311
94.2987,30453
94.3863,201294
94.474,30808
94.5616,30534
94.6492,29274
94.7368,29057
94.8245,28074
94.9121,27998
94.9997,28826
95.0874,28144
95.175,27971
95.2626,28881
95.3503,3303967
95.4379,30753
95.5255,30155
95.6132,29283
95.7008,28628
95.7884,28757
95.876,28465
95.9637,27498
96.0513,28154
96.1389,28664
96.2266,27881
96.3142,31739
96.4018,47564
96.4895,30604
96.5771,29278
96.6647,28471
96.7523,28590
96.84,27943
96.9276,28418
97.0152,28776
97.1029,28641
97.1905,28165
97.2781,28281
97.3658,2151837
97.4534,30989
97.541,29812
97.6287,27649
97.7163,28091
97.8039,28927
97.8915,27981
97.9792,28802
98.0668,27909
98.1544,28195
98.2421,28209
98.3297,599448
98.4173,31763
98.505,30526
98.5926,27882
98.6802,28445
98.7678,28160
98.8555,28297
98.9431,27485
99.0307,28004
99.1184,27733
99.206,28451
99.2936,29093
99.3813,420762
99.4689,30411
99.5565,29076
99.6442,27517
99.7318,28192
99.8194,28173
99.907,28465
99.9947,28209
100.082,27762
100.17,27725
100.258,28535
100.345,3146357
100.433,31710
100.52,30069
100.608,28413
100.696,27828
100.783,28630
100.871,28298
100.959,28435
101.046,28041
101.134,28587
101.221,27792
101.309,29759
101.397,67499
101.484,29688
101.572,29075
101.66,28127
101.747,28355
101.835,28622
101.923,28043
102.01,27767
102.098,27144
102.185,27339
102.273,28376
102.361,28747
102.448,28179
102.536,27523
102.624,28296
102.711,27722
102.799,27897
102.886,28101
102.974,28605
103.062,28267
103.149,27720
103.237,28939
103.325,28154
103.412,28134
103.5,28479
103.588,28747
103.675,28372
103.763,28160
103.85,27498
103.938,28229
104.026,28011
104.113,28280
104.201,28363
104.289,29711
104.376,28122
104.464,28721
104.551,28156
104.639,28642
104.727,29007
104.814,29173
104.902,28374
104.99,29023
105.077,29399
105.165,28583
105.252,28779
105.34,29072
105.428,28317
105.515,28750
105.603,28466
105.691,28971
105.778,28714
105.866,28533
105.954,29177
106.041,27855
106.129,28379
106.216,29326
106.304,29081
106.392,28950
106.479,29079
106.567,29194
106.655,28986
106.742,28055
106.83,29067
106.917,28549
107.005,28572
107.093,29206
107.18,28687
107.268,29498
107.356,28955
107.443,28690
107.531,28861
107.619,29594
107.706,29270
107.794,29478
107.881,29594
107.969,28957
108.057,29401
108.144,30003
108.232,28711
108.32,29225
108.407,28970
108.495,28735
108.582,29612
108.67,29206
108.758,28983
108.845,29336
108.933,28729
109.021,28727
109.108,29541
109.196,29319
109.283,29774
109.371,29258
109.459,28244
109.546,28986
109.634,29558
109.722,29707
109.809,29627
109.897,28850
109.985,29949
110.072,29235
110.16,29399
110.247,29590
110.335,28846
110.423,29998
110.51,28855
110.598,29909
110.686,30553
110.773,28954
110.861,29505
110.948,29317
111.036,29569
111.124,28807
111.211,29564
111.299,29117
111.387,29540
111.474,30224
111.562,29807
111.65,29529
111.737,29168
111.825,30098
111.912,29822
112,28693
112.088,29380
112.175,28316
112.263,29481
112.351,29541
112.438,29634
112.526,29934
112.613,29690
112.701,30004
112.789,29499
112.876,29864
112.964,29744
113.052,29403
113.139,29426
113.227,29257
113.314,29529
113.402,29767
113.49,29433
113.577,29971
113.665,29914
113.753,28986
113.84,30357
113.928,29694
114.016,29514
114.103,30635
114.191,30624
114.278,29264
114.366,29785
114.454,30680
114.541,29604
114.629,30294
114.717,30330
114.804,29437
114.892,29882
114.979,29710
115.067,29640
115.155,30079
115.242,29675
115.33,30429
115.418,29726
115.505,30137
115.593,29474
115.681,29650
115.768,30005
115.856,30056
115.943,29843
116.031,30192
116.119,30370
116.206,30419
116.294,30370
116.382,29830
116.469,30361
116.557,30027
116.644,30264
116.732,29755
116.82,30649
116.907,29643
116.995,30198
117.083,30063
117.17,29192
117.258,30065
117.345,29840
117.433,30211
117.521,30763
117.608,29785
117.696,31175
117.784,30652
117.871,30315
117.959,30163
118.047,30686
118.134,30910
118.222,30262
118.309,30435
118.397,29963
118.485,29871
118.572,29599
118.66,29612
118.748,30346
118.835,29647
118.923,30145
119.01,29973
119.098,30147
119.186,31155
119.273,29762
119.361,29363
119.449,29587
119.536,29521
119.624,29984
119.712,30945
119.799,30305
119.887,30431
119.974,30875
120.062,29751
120.15,29756
120.237,29888
120.325,29679
120.413,30760
120.5,30594
120.588,30618
120.675,30067
120.763,30298
120.851,30458
120.938,30484
121.026,30898
121.114,29758
121.201,29506
121.289,29803
121.376,30465
121.464,29760
121.552,30323
121.639,30609
121.727,30333
121.815,31034
121.902,29236
121.99,30925
122.078,31141
122.165,30433
122.253,31064
122.34,30433
122.428,30095
122.516,30090
122.603,31522
122.691,30488
122.779,30653
122.866,30315
122.954,30237
123.041,30462
123.129,30016
123.217,30151
123.304,30671
123.392,31206
123.48,29593
123.567,30979
123.655,31185
123.743,31021
123.83,30760
123.918,31123
124.005,30783
124.093,30558
124.181,30608
124.268,30481
124.356,30709
124.444,30896
124.531,31129
124.619,30327
124.706,31199
124.794,30303
124.882,30972
124.969,30906
124.987,30700