File: TGA-MS/DWTRWY.D/tic_front.csv
D:\GAILLARD\WALLACE_SAMUEL\DWTRWY.D  7 Sep 21  10:11 am
Start of data points
0.0960333,161385
0.183667,157378
0.2713,146017
0.358933,140595
0.446567,139342
0.5342,140052
0.621817,141985
0.70945,145038
0.797083,147165
0.884717,150008
0.97235,150481
1.05998,153380
1.1476,154750
1.23523,156094
1.32287,86482
1.4105,53357
1.49813,37522
1.58575,37449
1.67338,35585
1.76102,35463
1.84865,35767
1.93628,35093
2.02392,36352
2.11153,36232
2.19917,37080
2.2868,37880
2.37443,551342
2.46207,38279
2.5497,38579
2.63732,36925
2.72495,36328
2.81258,36513
2.90022,36648
2.98785,35588
3.07547,35799
3.1631,36292
3.25073,36197
3.33837,2097765
3.426,39393
3.51363,38390
3.60125,37002
3.68888,36244
3.77652,36337
3.86415,36152
3.95178,35963
4.03942,36057
4.12703,36408
4.21467,35773
4.3023,37457
4.38993,94625
4.47757,38487
4.56518,37388
4.65282,36178
4.74045,36298
4.82808,36239
4.91572,35096
5.00335,36692
5.09097,34458
5.1786,35260
5.26623,35576
5.35387,2702145
5.4415,38000
5.52912,38136
5.61675,35456
5.70438,35708
5.79202,35470
5.87965,35917
5.96728,35254
6.0549,35357
6.14253,35392
6.23017,35135
6.3178,57478
6.40543,44067
6.49307,37316
6.58068,36039
6.66832,34683
6.75595,35257
6.84358,34981
6.93122,34601
7.01883,34690
7.10647,34200
7.1941,35562
7.28173,35051
7.36937,892004
7.457,38315
7.54462,37337
7.63225,35046
7.71988,35432
7.80752,35022
7.89515,33811
7.98278,34784
8.0704,35448
8.15803,34849
8.24567,36111
8.3333,1169859
8.42093,40201
8.50855,37941
8.59618,35212
8.68382,34996
8.77145,34807
8.85908,35000
8.94672,34609
9.03433,35005
9.12197,34091
9.2096,34653
9.29723,36316
9.38487,152647
9.4725,38342
9.56012,37736
9.64775,35317
9.73538,34618
9.82302,35314
9.91065,34902
9.99827,35477
10.0859,34717
10.1735,34033
10.2612,35480
10.3488,2746441
10.4364,39221
10.5241,37584
10.6117,35485
10.6993,35605
10.787,34778
10.8746,35070
10.9622,34124
11.0498,35237
11.1375,34121
11.2251,33437
11.3127,38311
11.4004,53523
11.488,37273
11.5756,37088
11.6633,34809
11.7509,34195
11.8385,34208
11.9262,34868
12.0138,34053
12.1014,34124
12.189,34729
12.2767,34192
12.3643,1465985
12.4519,37932
12.5396,36439
12.6272,35048
12.7148,34646
12.8025,34655
12.8901,34510
12.9777,33769
13.0653,34644
13.153,34343
13.2406,34055
13.3282,450730
13.4159,42050
13.5035,38627
13.5911,36355
13.6788,35341
13.7664,35350
13.854,34628
13.9416,34902
14.0293,34232
14.1169,34617
14.2045,34560
14.2922,35768
14.3798,281983
14.4674,38009
14.5551,37439
14.6427,35240
14.7303,35001
14.818,34954
14.9056,34319
14.9932,34574
15.0808,34233
15.1685,34567
15.2561,34816
15.3437,2543835
15.4314,40748
15.519,37770
15.6066,35697
15.6943,34803
15.7819,35067
15.8695,33573
15.9571,34236
16.0448,33977
16.1324,34431
16.22,34409
16.3077,35269
16.3953,69668
16.4829,37867
16.5706,36653
16.6582,34666
16.7458,34670
16.8334,34691
16.9211,34616
17.0087,34149
17.0963,33999
17.184,34713
17.2716,33891
17.3592,2070652
17.4469,38342
17.5345,37280
17.6221,34900
17.7098,33912
17.7974,34484
17.885,34540
17.9726,33755
18.0603,33935
18.1479,34206
18.2355,33895
18.3232,139776
18.4108,43793
18.4984,37609
18.5861,36487
18.6737,34269
18.7613,34721
18.849,34514
18.9366,34397
19.0242,34717
19.1118,34309
19.1995,34642
19.2871,34603
19.3747,499472
19.4624,37831
19.55,36990
19.6376,34905
19.7253,34761
19.8129,34741
19.9005,34522
19.9881,34754
20.0758,35270
20.1634,34164
20.251,34210
20.3387,1880921
20.4263,40072
20.5139,37610
20.6016,34521
20.6892,34293
20.7768,34145
20.8644,34537
20.9521,34475
21.0397,34507
21.1273,34230
21.215,33963
21.3026,34984
21.3902,95126
21.4779,37610
21.5655,36901
21.6531,34798
21.7408,34329
21.8284,34786
21.916,34467
22.0036,33457
22.0913,33868
22.1789,33291
22.2665,33750
22.3542,2505474
22.4418,39053
22.5294,37742
22.6171,35129
22.7047,34512
22.7923,34415
22.8799,34206
22.9676,34115
23.0552,33686
23.1428,34544
23.2305,34942
23.3181,54855
23.4057,46396
23.4934,37150
23.581,36225
23.6686,34861
23.7563,35200
23.8439,34050
23.9315,33198
24.0191,33612
24.1068,34001
24.1944,33865
24.282,33836
24.3697,895155
24.4573,37789
24.5449,36357
24.6326,34634
24.7202,34417
24.8078,34384
24.8954,33704
24.9831,34369
25.0707,33834
25.1583,34199
25.246,34454
25.3336,1079554
25.4212,41035
25.5089,37526
25.5965,35224
25.6841,33962
25.7718,34252
25.8594,33341
25.947,34041
26.0346,34373
26.1223,35170
26.2099,34315
26.2975,36192
26.3852,155955
26.4728,37412
26.5604,37001
26.6481,34108
26.7357,34292
26.8233,34495
26.9109,33606
26.9986,34435
27.0862,33872
27.1738,33329
27.2615,34236
27.3491,2778755
27.4367,39155
27.5244,37161
27.612,34066
27.6996,34396
27.7872,34894
27.8749,33662
27.9625,34396
28.0501,34281
28.1378,34640
28.2254,34162
28.313,37165
28.4007,52602
28.4883,37241
28.5759,36596
28.6636,33876
28.7512,34098
28.8388,33670
28.9264,34437
29.0141,33823
29.1017,33597
29.1893,34370
29.277,33598
29.3646,1545736
29.4522,38351
29.5399,36681
29.6275,34306
29.7151,35198
29.8027,34389
29.8904,34316
29.978,33263
30.0656,33781
30.1533,34219
30.2409,33757
30.3285,465702
30.4162,41125
30.5038,37147
30.5914,35110
30.6791,33422
30.7667,33777
30.8543,33906
30.9419,34136
31.0296,33130
31.1172,33542
31.2048,33449
31.2925,34800
31.3801,283429
31.4677,36689
31.5554,36591
31.643,34450
31.7306,33656
31.8182,34253
31.9059,33645
31.9935,32756
32.0811,33590
32.1688,34002
32.2564,33342
32.344,2657154
32.4316,40492
32.5193,36773
32.6069,34538
32.6945,33214
32.7822,33593
32.8698,33897
32.9574,34088
33.0451,33937
33.1327,32740
33.2203,34007
33.3079,35078
33.3956,69186
33.4832,37363
33.5709,35964
33.6585,35010
33.7461,34205
33.8337,33526
33.9214,33894
34.009,33836
34.0966,33730
34.1842,33668
34.2719,33527
34.3595,2264395
34.4472,37417
34.5348,36668
34.6224,34536
34.71,35290
34.7977,33979
34.8853,33280
34.9729,34438
35.0606,33925
35.1482,34028
35.2358,34443
35.3235,144581
35.4111,42812
35.4987,37131
35.5864,34411
35.674,33650
35.7616,33866
35.8492,34018
35.9369,33004
36.0245,33751
36.1121,33432
36.1998,33155
36.2874,34756
36.375,565337
36.4627,38196
36.5503,36272
36.6379,34389
36.7255,33910
36.8132,34330
36.9008,33672
36.9884,34473
37.0761,33417
37.1637,33456
37.2513,33615
37.339,2078797
37.4266,39945
37.5142,36321
37.6018,34005
37.6895,34141
37.7771,33319
37.8647,33672
37.9524,34136
38.04,34261
38.1276,33557
38.2153,33666
38.3029,34821
38.3905,108575
38.4781,36576
38.5658,35033
38.6534,34224
38.741,34377
38.8287,34325
38.9163,33549
39.0039,34243
39.0916,33845
39.1792,34613
39.2668,33506
39.3545,2875505
39.4421,37964
39.5297,35818
39.6173,33500
39.705,33926
39.7926,33258
39.8802,33023
39.9679,34150
40.0555,33515
40.1431,32741
40.2308,33571
40.3184,53739
40.406,51521
40.4937,37007
40.5813,34839
40.6689,33593
40.7565,33238
40.8442,33904
40.9318,33012
41.0194,33244
41.1071,34084
41.1947,32917
41.2823,34158
41.37,1148396
41.4576,36416
41.5452,35551
41.6328,33577
41.7205,33118
41.8081,33728
41.8957,33973
41.9834,33829
42.071,33300
42.1586,33519
42.2463,32921
42.3339,1202776
42.4215,43504
42.5092,35950
42.5968,34276
42.6844,32292
42.772,33633
42.8597,32758
42.9473,33103
43.0349,32781
43.1226,32523
43.2102,32824
43.2978,34668
43.3854,189103
43.4731,36793
43.5607,36031
43.6483,33129
43.736,31907
43.8236,33676
43.9112,33932
43.9989,33053
44.0865,34111
44.1741,33353
44.2617,33791
44.3494,3045443
44.437,40754
44.5247,35635
44.6123,34108
44.6999,32400
44.7875,32669
44.8752,32556
44.9628,33639
45.0504,32947
45.1381,33843
45.2257,33232
45.3133,35310
45.401,63929
45.4886,36096
45.5762,35122
45.6638,33659
45.7515,32444
45.8391,33294
45.9267,31572
46.0144,33436
46.102,33083
46.1896,32432
46.2773,31994
46.3649,1885886
46.4525,39011
46.5401,35482
46.6278,33011
46.7154,34125
46.803,33573
46.8907,32951
46.9783,33051
47.0659,33229
47.1536,32653
47.2412,32878
47.3288,473530
47.4165,43880
47.5041,36701
47.5917,34234
47.6793,33682
47.767,32681
47.8546,33569
47.9422,32472
48.0299,33351
48.1175,33883
48.2051,32616
48.2928,34190
48.3804,354502
48.468,36406
48.5556,34505
48.6433,33441
48.7309,32559
48.8185,32940
48.9062,32450
48.9938,31828
49.0814,32830
49.1691,32637
49.2567,33313
49.3443,2870466
49.432,38545
49.5196,36034
49.6072,33380
49.6948,33220
49.7825,32475
49.8701,32943
49.9577,33712
50.0453,33032
50.133,32955
50.2206,33158
50.3083,34244
50.3959,73189
50.4835,36390
50.5711,35629
50.6588,33773
50.7464,34053
50.834,33535
50.9217,33648
51.0093,33289
51.0969,33155
51.1846,33388
51.2722,33225
51.3598,2609346
51.4475,37258
51.5351,35727
51.6227,33656
51.7103,33763
51.798,32997
51.8856,33336
51.9732,33639
52.0609,32584
52.1485,33468
52.2361,32866
52.3238,140195
52.4114,44795
52.499,36592
52.5866,34360
52.6743,33572
52.7619,33138
52.8495,32570
52.9372,33348
53.0248,32947
53.1124,33694
53.2001,32459
53.2877,33119
53.3753,663174
53.4629,36513
53.5506,36500
53.6382,33937
53.7258,33389
53.8135,32998
53.9011,33072
53.9887,33435
54.0764,32549
54.164,32817
54.2516,33300
54.3393,2229478
54.4269,38847
54.5145,36139
54.6021,34339
54.6898,33985
54.7774,34063
54.865,33526
54.9527,33242
55.0403,33390
55.1279,33266
55.2156,33900
55.3032,35398
55.3908,108481
55.4784,36512
55.5661,36316
55.6537,34262
55.7413,33412
55.829,33354
55.9166,32662
56.0042,33807
56.0919,34538
56.1795,33595
56.2671,33555
56.3548,2949538
56.4424,36785
56.53,35942
56.6176,33540
56.7053,34701
56.7929,33594
56.8805,33535
56.9682,33897
57.0558,33633
57.1434,32495
57.2311,33393
57.3187,54768
57.4063,46962
57.4939,36030
57.5816,35270
57.6692,33763
57.7568,33158
57.8445,33689
57.9321,33337
58.0197,33918
58.1074,33243
58.195,33785
58.2826,32987
58.3702,1202889
58.4579,36921
58.5455,35120
58.6331,34059
58.7208,34630
58.8084,33283
58.896,33571
58.9837,33273
59.0713,33560
59.1589,33815
59.2466,32658
59.3342,1205807
59.4218,38643
59.5094,36380
59.5971,33768
59.6847,34191
59.7723,33878
59.86,32711
59.9476,33269
60.0352,32839
60.1229,33145
60.2105,33309
60.2981,35694
60.3857,182361
60.4734,35764
60.561,35602
60.6486,33580
60.7363,32686
60.8239,33062
60.9115,34671
60.9992,33305
61.0868,33457
61.1744,33969
61.2621,32660
61.3497,3155092
61.4373,36666
61.5249,36087
61.6126,33662
61.7002,34499
61.7878,33418
61.8755,33973
61.9631,33168
62.0507,33447
62.1384,33822
62.226,34001
62.3136,37173
62.4012,52561
62.4889,35699
62.5765,34971
62.6641,33958
62.7518,33961
62.8394,33456
62.927,33898
63.0147,33052
63.1023,33285
63.1899,33063
63.2776,33102
63.3652,2022126
63.4528,37079
63.5404,36220
63.6281,34264
63.7157,33915
63.8033,34062
63.891,32954
63.9786,32817
64.0662,33425
64.1539,33612
64.2415,33684
64.3291,485239
64.4167,37823
64.5044,35654
64.592,34639
64.6796,34368
64.7673,32956
64.8549,32793
64.9425,33491
65.0302,32680
65.1178,33414
65.2054,33659
65.293,35048
65.3807,377025
65.4683,36360
65.5559,36022
65.6436,34071
65.7312,33410
65.8188,34034
65.9065,32714
65.9941,33638
66.0817,34468
66.1693,33577
66.257,33626
66.3446,2974312
66.4322,37479
66.5199,36290
66.6075,33100
66.6951,33386
66.7827,33241
66.8704,33882
66.958,33894
67.0456,33461
67.1333,33928
67.2209,33447
67.3085,35038
67.3962,71395
67.4838,35945
67.5714,35050
67.6591,34038
67.7467,33116
67.8343,33547
67.9219,33242
68.0096,32808
68.0972,32989
68.1848,32197
68.2725,34486
68.3601,2768138
68.4477,35902
68.5354,35582
68.623,34145
68.7106,33960
68.7982,33152
68.8859,33381
68.9735,33116
69.0611,33105
69.1488,33289
69.2364,33079
69.324,153823
69.4117,40406
69.4993,35975
69.5869,33854
69.6746,34062
69.7622,33254
69.8498,34149
69.9374,33590
70.0251,33302
70.1127,32895
70.2004,33293
70.288,34054
70.3756,747974
70.4632,36311
70.5509,35126
70.6385,33791
70.7261,33460
70.8137,33378
70.9014,33419
70.989,32998
71.0767,32859
71.1643,32755
71.2519,32095
71.3395,2448517
71.4272,36817
71.5148,35259
71.6024,34107
71.6901,33967
71.7777,32370
71.8653,32129
71.953,33101
72.0406,32585
72.1282,33405
72.2158,32965
72.3035,35122
72.3911,115568
72.4787,35258
72.5664,34448
72.654,33921
72.7416,32745
72.8293,33166
72.9169,33026
73.0045,32213
73.0922,32544
73.1798,32833
73.2674,34042
73.355,3198292
73.4427,36220
73.5303,35221
73.6179,33333
73.7056,32409
73.7932,33227
73.8808,32991
73.9685,33452
74.0561,32370
74.1437,32534
74.2313,32795
74.319,56744
74.4066,44537
74.4942,36118
74.5819,35595
74.6695,33791
74.7571,33023
74.8448,33102
74.9324,33358
75.02,31801
75.1077,32823
75.1953,33165
75.2829,33013
75.3705,1405756
75.4582,35815
75.5458,35733
75.6334,32416
75.7211,32590
75.8087,33750
75.8963,33244
75.984,32757
76.0716,32155
76.1592,33311
76.2468,33207
76.3345,1398501
76.4221,37153
76.5097,34725
76.5974,33697
76.685,33173
76.7726,32664
76.8603,32100
76.9479,32676
77.0355,32183
77.1232,33567
77.2108,32286
77.2984,33994
77.386,219791
77.4737,34561
77.5613,35108
77.6489,33170
77.7366,32282
77.8242,33912
77.9118,32579
77.9995,32228
78.0871,33226
78.1747,32524
78.2623,33239
78.35,3430202
78.4376,35642
78.5252,34840
78.6129,33223
78.7005,32627
78.7881,32971
78.8758,32789
78.9634,32593
79.051,32461
79.1386,32787
79.2263,32754
79.3139,35567
79.4015,55016
79.4892,34583
79.5768,34659
79.6644,33982
79.752,32919
79.8397,32936
79.9273,31974
80.0149,32827
80.1026,32749
80.1902,32543
80.2778,32556
80.3655,2379411
80.4531,35987
80.5407,34815
80.6283,32957
80.716,32633
80.8036,32710
80.8912,32069
80.9789,32601
81.0665,31759
81.1541,31825
81.2418,32035
81.3294,573245
81.417,37933
81.5047,34775
81.5923,32331
81.6799,31761
81.7676,32952
81.8552,32271
81.9428,32066
82.0305,32090
82.1181,32761
82.2057,32403
82.2933,33354
82.381,443800
82.4686,35363
82.5562,34270
82.6439,32089
82.7315,32828
82.8191,32776
82.9068,32659
82.9944,32060
83.082,32738
83.1696,32366
83.2573,32436
83.3449,3280722
83.4325,35742
83.5202,34186
83.6078,32858
83.6954,32328
83.7831,32779
83.8707,32702
83.9583,31778
84.046,31795
84.1336,32562
84.2212,31864
84.3088,34045
84.3965,76742
84.4841,34186
84.5717,34324
84.6594,32327
84.747,32263
84.8346,31928
84.9223,32094
85.0099,32194
85.0975,31495
85.1851,32267
85.2728,32629
85.3604,3126028
85.448,35124
85.5357,34256
85.6233,31788
85.7109,32497
85.7986,32663
85.8862,31655
85.9738,32432
86.0614,31843
86.1491,31093
86.2367,32783
86.3243,168789
86.412,39331
86.4996,34174
86.5872,33004
86.6749,31359
86.7625,32067
86.8501,32638
86.9378,31406
87.0254,32659
87.113,32250
87.2006,32241
87.2883,31378
87.3759,934386
87.4635,35428
87.5512,33620
87.6388,32720
87.7264,32307
87.8141,30873
87.9017,31554
87.9893,32328
88.0769,32785
88.1646,31490
88.2522,31960
88.3398,2711048
88.4275,35817
88.5151,34717
88.6027,31865
88.6904,31750
88.778,31241
88.8656,31984
88.9533,32724
89.0409,31571
89.1285,31670
89.2161,32313
89.3038,34173
89.3914,133127
89.479,34704
89.5667,33403
89.6543,32095
89.7419,31267
89.8295,31522
89.9172,32438
90.0048,31529
90.0924,31620
90.1801,31392
90.2677,31977
90.3553,3552083
90.443,34869
90.5306,33086
90.6182,32871
90.7058,31367
90.7935,31740
90.8811,32032
90.9687,31434
91.0564,32489
91.144,30745
91.2316,31627
91.3193,55336
91.4069,45385
91.4945,34672
91.5821,33757
91.6698,32054
91.7574,31281
91.8451,32066
91.9327,31106
92.0203,31792
92.1079,32927
92.1956,31981
92.2832,31469
92.3708,1707719
92.4584,34428
92.5461,34185
92.6337,31407
92.7214,31342
92.809,31518
92.8966,30857
92.9842,31943
93.0719,32200
93.1595,32641
93.2471,32124
93.3348,1584720
93.4224,36406
93.51,34119
93.5977,32391
93.6853,31575
93.7729,31960
93.8606,31880
93.9482,32008
94.0358,32301
94.1234,31872
94.2111,32294
94.2987,33505
94.3863,253028
94.474,34629
94.5616,33524
94.6492,31713
94.7369,31704
94.8245,31448
94.9121,31441
94.9997,31655
95.0874,31787
95.175,31408
95.2626,30881
95.3503,3717884
95.4379,34276
95.5255,34256
95.6132,31421
95.7008,31581
95.7884,31270
95.8761,32231
95.9637,31075
96.0513,30681
96.1389,32116
96.2266,31756
96.3142,34469
96.4018,56814
96.4895,33513
96.5771,32909
96.6647,32088
96.7524,31445
96.84,31738
96.9276,31257
97.0152,31335
97.1029,32011
97.1905,31227
97.2781,32150
97.3658,2697791
97.4534,34753
97.541,33522
97.6287,32557
97.7163,31901
97.8039,31630
97.8915,31262
97.9792,31871
98.0668,30957
98.1544,31625
98.2421,32153
98.3297,625046
98.4173,37933
98.505,33541
98.5926,32835
98.6802,31827
98.7679,32186
98.8555,32413
98.9431,31564
99.0307,31682
99.1184,31909
99.206,31894
99.2936,32631
99.3813,523264
99.4689,34363
99.5565,33963
99.6442,31132
99.7318,30955
99.8194,30554
99.907,32352
99.9947,31395
100.082,32149
100.17,32086
100.258,31622
100.345,3520173
100.433,35419
100.52,34554
100.608,31709
100.696,31494
100.783,31086
100.871,31327
100.959,31315
101.046,31486
101.134,30859
101.222,30923
101.309,32238
101.397,86722
101.484,33852
101.572,33674
101.66,31907
101.747,31531
101.835,31932
101.923,31218
102.01,31635
102.098,31201
102.185,31670
102.273,31001
102.361,30551
102.448,31205
102.536,31883
102.624,30702
102.711,32157
102.799,31268
102.886,31359
102.974,31246
103.062,31388
103.149,31424
103.237,31745
103.325,31138
103.412,31948
103.5,31618
103.588,31690
103.675,30872
103.763,31534
103.85,31794
103.938,31371
104.026,31685
104.113,31727
104.201,31315
104.289,31598
104.376,31250
104.464,32162
104.551,31040
104.639,31986
104.727,31576
104.814,30790
104.902,32238
104.99,31447
105.077,31891
105.165,31115
105.253,31778
105.34,31349
105.428,31599
105.515,31490
105.603,31180
105.691,31361
105.778,31476
105.866,31711
105.954,31636
106.041,32701
106.129,31505
106.216,31849
106.304,31790
106.392,31494
106.479,31931
106.567,32202
106.655,31462
106.742,32589
106.83,31040
106.917,31521
107.005,32078
107.093,31635
107.18,31690
107.268,31738
107.356,31299
107.443,31569
107.531,31827
107.619,32870
107.706,32704
107.794,32001
107.881,30918
107.969,31592
108.057,31814
108.144,32919
108.232,31916
108.32,31898
108.407,31667
108.495,31799
108.582,31250
108.67,32203
108.758,32052
108.845,32240
108.933,31700
109.021,32276
109.108,32337
109.196,32164
109.283,31810
109.371,33266
109.459,32138
109.546,31316
109.634,31947
109.722,32080
109.809,32404
109.897,32276
109.985,32419
110.072,32477
110.16,32749
110.247,31865
110.335,32269
110.423,32059
110.51,31914
110.598,32314
110.686,32147
110.773,32555
110.861,32235
110.948,32345
111.036,32168
111.124,31770
111.211,32032
111.299,32394
111.387,32845
111.474,31427
111.562,32539
111.65,32464
111.737,32675
111.825,32330
111.912,33118
112,32355
112.088,32829
112.175,32043
112.263,32597
112.351,33054
112.438,32099
112.526,32292
112.613,32247
112.701,32399
112.789,31805
112.876,31811
112.964,32363
113.052,32312
113.139,32482
113.227,32875
113.314,32696
113.402,32637
113.49,32677
113.577,32531
113.665,32419
113.753,32398
113.84,33244
113.928,32421
114.016,32709
114.103,33524
114.191,33330
114.278,32445
114.366,32819
114.454,32383
114.541,32765
114.629,32413
114.717,32309
114.804,32580
114.892,33031
114.979,32151
115.067,32844
115.155,32215
115.242,33298
115.33,31591
115.418,33201
115.505,32653
115.593,32494
115.681,32497
115.768,32827
115.856,32120
115.943,33243
116.031,32703
116.119,32622
116.206,32517
116.294,33056
116.382,32438
116.469,32177
116.557,32273
116.644,32954
116.732,32828
116.82,32162
116.907,33039
116.995,32002
117.083,33419
117.17,32337
117.258,32975
117.345,32665
117.433,32727
117.521,32928
117.608,32861
117.696,32294
117.784,32469
117.871,32709
117.959,33985
118.047,32266
118.134,32500
118.222,32378
118.309,33378
118.397,32474
118.485,33234
118.572,33112
118.66,32957
118.748,32963
118.835,32376
118.923,32114
119.01,32387
119.098,32855
119.186,33244
119.273,32915
119.361,33396
119.449,33002
119.536,32988
119.624,33027
119.712,32537
119.799,32657
119.887,32645
119.974,33726
120.062,32376
120.15,33439
120.237,33773
120.325,33049
120.413,33163
120.5,32956
120.588,32634
120.675,33537
120.763,32655
120.851,32616
120.938,32066
121.026,32616
121.114,32580
121.201,32609
121.289,33401
121.376,32649
121.464,32181
121.552,33273
121.639,33577
121.727,32808
121.815,33252
121.902,33040
121.99,33475
122.078,31812
122.165,32862
122.253,33108
122.34,32972
122.428,33028
122.516,33178
122.603,32303
122.691,32179
122.779,32401
122.866,32711
122.954,32269
123.041,33003
123.129,32622
123.217,33097
123.304,32578
123.392,33029
123.48,32857
123.567,32947
123.655,32935
123.743,32847
123.83,32852
123.918,32595
124.005,33473
124.093,32880
124.181,33072
124.268,32235
124.356,33286
124.444,32968
124.531,33090
124.619,33438
124.706,33061
124.794,33569
124.882,33116
124.969,33193
124.987,33409