File: XRD/DWTR_FL/APS_XRD_Gaillard/dwtr_fine_001_truncated.txt
     35     39     38     36     44     41     43     33     37     36
     40     40     36     39     40     31     36     34     39     33
     43     41     37     34     42     45     39     44     36     36
     42     56     35     39     42     51     55     33     36     40
     38     48     37     47     29     33     40     35     45     43
     52     33     38     39     48     40     45     45     38     40
     35     39     42     39     39     36     31     47     33     40
     36     39     47     44     47     36     39     30     38     49
     42     34     36     41     40     39     36     37     53     33
     41     40     36     29     47     44     45     31     47     51
     40     48     38     38     43     42     31     44     47     41
     52     42     42     46     44     44     40     48     41     33
     39     42     44     53     52     33     43     41     40     50
     37     48     46     36     34     42     49     52     35     37
     45     42     46     46     44     40     41     30     38     48
     49     57     39     32     54     49     40     42     50     41
     50     44     39     57     39     49     40     46     44     37
    114    126    200    261    336    443    537    678   1037   1267
     46     40     40     54     36     56     48     34     62     63
     40     43     40     37     46     45     48     42     46     40
     45     53     48     31     53     52     46     50     51     50
     32     32     28     30     39     38     49     37     38     52
     50     46     46     54     44     54     42     42     47     45
     33     48     40     48     37     43     34     53     43     53
     34     45     47     42     43     49     39     39     41     49
     50     45     45     48     55     42     46     46     26     50
     32     44     37     49     49     38     45     43     52     45
     40     42     40     36     54     46     48     56     51     36
     46     48     40     39     28     44     50     59     36     39
     43     38     38     38     47     31     38     39     38     49
     43     46     41     50     39     29     50     34     47     51
     31     54     38     36     48     43     43     35     48     38
     28     39     39     46     37     35     49     43     35     41
     42     35     55     37     30     39     34     34     32     30
     36     45     43     32     39     40     40     38     44     33
     35     37     40     41     44     33     52     48     40     44
     38     42     46     21     51     58     58     30     37     42
     46     46     51     35     26     47     49     44     40     40
     37     28     39     35     42     35     39     44     48     49
     50     48     52     45     50     45     41     46     32     49
     34     34     33     36     33     36     26     35     47     51
     38     45     50     38     53     34     48     44     44     35
     54     47     39     39     46     45     35     34     44     43
     46     37     40     41     40     32     36     50     44     42
     36     40     42     38     41     48     34     43     43     38
     48     42     40     47     36     52     39     48     36     49
     46     41     57     33     49     36     37     51     50     33
     39     30     43     47     35     35     37     36     42     34
     42     36     46     44     27     38     42     41     45     55
     50     31     33     41     39     42     40     36     43     40
     45     45     44     38     45     40     40     41     41     43
     38     41     41     39     35     40     47     42     45     59
     53     38     46     55     52     38     54     39     45     38
     45     42     47     47     45     40     45     45     47     53
     41     46     36     44     39     45     36     38     32     44
     38     37     42     36     33     43     46     41     48     39
     48     42     49     48     33     49     36     52     41     43
     50     32     41     50     38     43     31     48     41     45
     37     55     49     52     36     42     40     42     38     42
     42     44     41     53     54     48     49     48     43     37
     41     55     38     52     47     64     55     51     41     46
     44     68     57     45     55     49     56     56     49     62
     61     76     63     57     80     75     70     75     61     64
  13193   9640   6486   4198   2776   1884   1295    933    714    519
     70     61     61     75     61     53     61     46     45     55
     66     52     51     43     47     52     40     62     56     58
     57     51     47     46     44     58     37     58     52     53
     44     54     57     43     51     56     45     50     37     43
     44     48     49     54     57     53     48     55     52     47
     36     40     49     39     42     62     48     54     57     49
     51     43     44     38     50     47     45     39     56     39
     58     32     47     52     44     44     44     40     32     43
     43     45     48     30     33     39     36     30     50     51
     41     38     46     42     53     44     54     43     42     34
     30     33     37     37     40     42     39     43     48     43
     40     37     32     30     31     36     50     39     34     38
     37     39     37     46     35     39     42     55     35     43
     47     38     42     29     42     40     48     39     37     47
     40     42     33     38     37     29     40     42     44     41
     23     34     30     37     37     31     36     32     42     32
     38     39     39     28     41     41     32     32     41     44
     40     38     38     43     43     24     24     32     36     33
     40     44     38     34     35     37     31     33     25     32
     30     42     43     37     28     46     47     31     29     36
     35     36     35     32     37     30     29     40     33     40
     50     38     41     17     39     34     29     30     34     38
     47     24     34     38     34     38     36     29     42     26
     36     40     39     33     46     31     46     44     39     37
     36     39     22     34     24     29     52     39     35     30
     48     44     34     48     30     35     38     37     37     41
     49     35     38     33     40     29     34     33     39     30
     37     25     35     41     31     40     43     38     33     27
     41     41     30     27     52     39     48     29     46     43
     36     47     38     43     35     41     31     35     32     43
     29     32     32     48     44     25     32     35     32     36
     32     31     26     35     46     41     35     49     44     30
     26     36     25     36     31     36     33     39     20     20
     25     39     35     40     35     41     26     34     30     37
     32     34     35     35     41     36     42     32     45     33
     37     30     32     40     29     34     36     36     37     32
     24     46     39     36     40     31     44     31     35     29
     36     37     37     41     29     39     34     28     38     33
     23     36     36     34     31     35     40     39     18     26
     32     27     32     34     32     37     29     35     34     37
     25     36     33     27     37     34     39     33     28     29
     32     36     39     30     28     30     24     34     20     33
     51     38     29     41     39     33     42     34     31     38
     36     32     26     46     57     57     60     59     28     43
     35     30     35     24     31     28     28     41     22     35
     32     37     29     33     28     36     28     31     35     39
     33     30     27     38     37     32     33     39     36     32
     24     30     35     39     36     43     30     30     32     28
     42     27     20     28     24     33     28     39     39     27
     41     35     27     32     32     31     40     35     35     26
     42     40     27     33     28     29     38     28     33     34
     30     31     24     30     27     36     35     20     29     29
     32     27     29     24     30     38     24     30     32     37
     25     33     31     38     47     26     30     29     36     25
     39     40     21     38     23     32     32     37     37     35
     24     29     26     30     31     37     37     31     42     32
     28     26     34     23     36     38     25     32     29     33
     36     35     24     33     32     24     39     22     41     33
     39     35     27     29     39     38     15     26     38     44
     26     23     28     33     25     36     27     40     31     36
     21     29     41     33     33     32     44     33     37     40
     25     33     29     40     32     36     22     33     34     32
     32     35     32     22     39     22     31     34     31     39
     47     26     30     27     36     29     34     36     31     35
     26     30     35     36     21     29     28     32     29     32
     25     30     38     31     27     39     32     39     24     29
     26     19     35     34     43     31     28     29     23     32
     25     29     29     29     28     34     40     33     41     40
     38     43     30     41     34     26     38     36     26     28
     40     27     36     32     40     34     32     37     33     41
     34     38     27     44     30     29     37     26     28     28
     33     36     31     36     25     38     32     29     32     35
     45     50     30     40     35     41     30     26     36     36
     35     36     32     31     35     36     29     37     36     25
     44     28     33     25     31     35     21     30     39     31
     29     23     27     34     34     39     30     25     32     41
     91    129    197    193    253    386    424    586    754    809
     49     39     25     37     36     27     30     36     17     39
     33     32     36     35     34     31     29     31     41     36
     33     34     24     35     26     30     32     27     27     35
     33     34     39     38     39     30     25     32     32     33
     26     26     30     36     28     31     36     31     29     23
     35     36     34     22     29     25     33     29     27     22
     43     37     36     26     29     37     28     27     22     22
     20     32     33     31     31     26     31     31     30     36
     44     31     18     35     31     28     21     22     37     28
     28     30     29     33     28     25     35     27     29     35
     20     31     28     21     27     29     30     36     30     25
     29     33     34     26     36     24     43     34     27     29
     33     32     27     33     35     26     27     32     30     24
     45     20     42     30     33     30     33     33     23     38
     31     33     27     31     29     36     25     30     26     28
     36     23     35     28     26     28     31     43     32     29
     40     28     25     16     38     30     26     32     25     30
     29     33     24     28     29     32     28     31     36     41
     31     33     32     39     34     30     25     31     32     35
     30     37     21     36     38     38     40     36     34     24
     36     40     26     23     31     36     28     37     34     31
     38     34     37     36     41     31     42     34     28     37
     60     42     33     38     42     34     34     38     25     39
     34     28     37     30     28     46     28     29     26     39
     31     31     32     29     34     25     27     32     33     31
     36     22     37     27     30     27     39     33     29     35
     33     26     34     34     38     35     23     31     30     31
     26     31     28     39     34     23     38     44     36     34
    226    153    133    105     90     87     77     60     45     63
     24     27     36     30     31     30     36     38     39     33
     28     36     26     25     29     26     36     41     31     30
     43     30     33     32     27     26     22     34     24     31
     43     29     24     38     33     30     29     31     20     30
     41     34     38     35     39     42     40     33     40     30
     32     31     37     28     39     22     39     40     30     25
     32     40     29     25     24     44     41     32     29     35
     27     37     21     23     33     28     27     36     30     35
     32     32     19     32     27     41     40     41     40     30
     36     26     37     35     20     30     30     30     29     29
     49     33     29     29     15     27     34     31     32     37
     27     31     27     29     30     32     30     38     36     25
     21     31     29     28     34     30     30     31     28     41
     42     29     31     31     25     37     36     35     39     38
     39     36     37     22     48     29     33     36     34     27
     47     49     49     57     53     59     65     74     85     79
     38     33     33     40     22     38     27     27     41     34
     32     35     31     25     31     28     32     29     24     37
     20     20     24     37     22     39     32     33     38     30
     32     25     19     27     28     37     32     39     23     33
     26     37     30     30     32     30     40     33     35     22
     31     34     29     31     22     36     38     32     29     37
     29     41     20     41     44     37     34     24     41     36
     27     29     31     31     39     31     29     30     35     32
     24     23     18     27     38     21     29     13     40     29
     29     31     24     22     28     35     31     35     32     34
     26     39     37     33     35     23     33     23     32     26
     35     32     23     28     32     30     32     21     23     23
     29     26     24     31     33     34     21     20     31     32
     35     35     31     20     28     23     26     36     26     34
     32     32     25     33     23     35     29     15     26     35
     33     28     31     12     15     32     30     31     30     28
     33     24     34     22     24     30     18     26     32     32
     25     31     31     45     38     34     21     34     26     22
     36     33     24     29     23     36     30     33     22     25
     20     23     23     22     30     29     35     17     29     26
     24     27     35     33     31     32     24     38     23     31
     29     20     26     39     27     31     32     34     27     35
     24     45     27     27     31     22     41     35     26     27
     34     26     36     20     24     23     18     29     30     25
     18     31     32     42     29     36     27     38     37     30
     39     29     29     25     34     46     31     29     33     30
     22     32     27     32     27     23     41     25     17     35
     34     27     35     31     34     32     24     30     23     24
     39     30     27     34     25     30     22     19     31     27
     31     33     22     26     27     22     24     36     26     23
     29     30     28     19     32     33     26     24     33     24
     27     32     33     26     32     33     28     28     27     38
     25     30     30     26     27     18     29     30     18     31
     35     26     24     20     35     22     27     16     22     24
     34     28     25     35     25     36     28     29     27     31
     29     25     30     24     35     23     27     39     22     29
     30     25     24     14     15     24     30     40     28     28
     32     23     27     34     26     31     29     33     26     15
     19     29     27     28     28     31     30     21     27     25
     16     25     27     29     32     27     36     27     33     29
     18     21     13     29     28     27     22     28     29     35
     32     39     29     37     27     25     23     21     34     34
     25     28     21     15     23     35     33     24     23     29
     21     30     22     24     29     24     22     21     26     19
     27     42     28     27     23     19     27     21     26     29
     19     24     25     31     33     31     31     32     26     30
     23     29     19     23     33     28     37     24     27     29
     21     29     38     23     28     31     20     21     25     27
     27     29     30     26     28     29     23     25     28     32
     18     22     28     17     26     22     27     32     34     25
     28     21     29     31     44     31     25     35     21     30
     29     22     21     20     32     22     25     21     23     31
     36     25     29     31     24     30     32     26     19     22
     31     33     30     32     27     31     24     24     20     29
     29     25     21     23     27     30     24     27     33     35
     31     40     39     27     26     23     24     29     24     24
     30     31     18     34     30     41     34     34     39     42
   1717   1864   1733   1510   1170    892    638    493    347    327
     37     30     26     25     28     30     36     27     32     22
     27     28     34     26     24     28     28     25     16     21
     24     30     30     33     33     27     21     21     28     29
     23     28     28     22     30     25     32     36     33     24
     34     26     22     33     27     27     25     29     19     31
     21     20     31     29     24     34     27     24     18     31
     14     28     21     36     23     25     24     22     29     28
     31     18     19     26     29     25     29     19     25     25
     22     28     24     22     24     30     21     25     30     21
     21     26     29     16     18     26     22     23     26     32
     29     20     26     24     12     20     27     24     33     26
     26     21     36     23     18     21     32     24     21     23
     22     23     22     14     31     23     27     22     26     26
     23     17     30     21     20     23     26     20     30     23
     20     24     25     32     33     27     20     17     15     27
     22     25     22     26     32     18     19     24     28     22
     28     26     31     25     30     27     16     28     23     28
     23     21     27     22     26     24     26     20     30     30
     27     24     23     26     27     28     18     19     17     26
     27     20     21     15     19     40     24     17     33     24
     30     26     28     26     36     28     23     27     25     34
     25     22     28     22     22     23     28     23     25     22
     20     32     25     20     25     22     28     23     30     30
     27     23     32     25     19     30     27     28     18     17
     16     19     22     20     19     22     15     20     34     23
     26     22     30     24     24     30     24     20     21     18
     22     24     19     25     18     24     24     23     22     16
     25     21     29     30     20     24     17     20     25     25
     26     23     21     19     23     32     24     19     27     22
     18     30     31     26     28     34     25     28     24     27
     33     13     33     33     17     24     26     21     21     31
     25     26     28     26     29     21     20     28     32     19
     20     14     13     27     24     29     39     20     21     35
     34     26     32     19     31     27     33     23     21     30
     76     65     69     63     49     37     34     45     46     36
     25     31     31     20     18     28     25     22     28     26
     24     23     32     27     26     27     23     25     28     25
    151    182    206    246    263    259    229    189    147    115
     21     24     28     22     28     25     24     28     24     29
     32     24     26     23     28     27     23     26     18     22
     27     27     22     27     23     29     27     23     25     23
     18     34     27     26     26     24     17     29     22     21
     25     22     28     11     29     26     18     25     30     20
     25     30     23     19     21     26     21     27     28     26
     14     30     20     20     20     16     28     24     27     16
     30     21     24     31     27     19     19     24     25     29
     32     16     16     25     16     18     28     17     21     25
     26     25     27     23     16     22     29     25     22     32
     19     19     21     29     24     26     26     26     31     32
     19     26     18     26     21     21     20     14     28     19
     18     29     14     28     26     25     27     24     21     23
     28     27     26     28     16     30     31     22     27     22
     23     17     26     25     24     21     20     19     20     25
     20     33     29     25     30     28     22     27     22     33
     27     24     27     26     20     24     23     25     23     20
     26     16     17     28     25     25     36     13     17     26
     33     14     21     25     22     21     22     29     16     24
     28     34     36     17     22     25     14     35     22     22
     24     34     19     19     15     24     25     26     36     28
     28     22     18     22     24     19     27     19     19     30
     25     29     32     24     26     27     24     21     31     28
     11     21     22     25     26     19     31     20     24     26
     32     25     27     18     20     18     17     27     23     19
     16     32     27     29     17     27     36     24     25     32
     18     17     21     31     23     24     21     22     19     18
     30     19     27     21     23     32     24     33     22     26
     39     28     21     20     17     23     28     28     21     29
     12     34     26     29     26     28     25     29     34     28
     23     22     19     24     35     32     22     30     16     19
     17     31     36     31     32     25     23     35     23     29
     63     64     78     81    105    109    129    160    166    179
     33     40     32     24     23     33     34     45     28     36
     23     28     22     29     21     29     27     28     23     33
     32     26     36     18     22     19     26     22     19     21
     19     22     27     21     22     21     27     30     28     17
     26     30     24     27     31     22     25     23     31     34
     18     22     18     22     24     24     26     23     15     42
     15     26     24     23     24     18     30     18     21     19
     28     24     16     24     25     23     31     18     22     19
     30     18     21     28     20     13     19     26     21     24
     19     29     21     27     29     38     23     34     31     32
     26     20     25     29     20     20     25     25     28     32
     28     29     20     27     20     23     25     24     24     28
     22     18     24     20     28     15     15     19     21     27
     17     16     27     28     28     28     20     30     21     16
      9     30     31     26     19     16     24     15     27     21
     25     26     27     24     16     24     26     27     21     30
     21     27     22     23     26     22     26     27     19     16
     31     28     21     42     22     22     26     20     29     27
     31     20     24     34     26     16     16     23     16     32
     24     25     28     21     23     26     21     21     33     34
     17     29     23     25     22     22     24     15     26     23
     31     31     29     22     26     20     20     24     25     25
     19     30     18     29     15     25     20     19     25     19
     34     17     24     23     23     36     16     28     25     26
     32     20     31     20     22     24     19     27     28     29
     18     23     23     26     23     33     29     24     20     25
     23     24     21     22     19     25     26     21     18     16
     23     27     23     18     23     31     23     23     19     22
     67     61     95     99    142    157    202    239    263    268
     25     24     34     25     40     28     27     31     26     20
     26     30     24     26     25     26     24     24     20     29
     32     29     26     38     25     17     13     22     19     16
     24     30     31     26     25     36     30     22     19     23
     28     26     23     27     31     31     18     24     41     18
     21     40     22     22     25     25     37     30     26     23
     23     27     30     19     24     20     13     38     21     22
     22     21     22     20     32     22     28     32     24     24
     27     15     26     29     25     26     19     25     32     33
     18     28     24     16     26     37     25     23     24     21
     23     24     17     24     26     23     21     23     26     17
     23     31     23     24     32     24     30     37     36     35
     24     30     30     21     21     20     16     32     25     24
     33     28     15     30     25     18     22     20     26     26
     18     19     27     25     16     27     19     23     26     26
     29     25     13     22     25     23     23     24     21     19
     20     22     20     23     41     22     17     22     25     23
     22     23     25     23     26     27     29     16     27     14
     30     14     23     18     28     32     34     19     26     30
     24     22     28     20     25     31     26     26     32     34
     29     27     17     19     22     33     26     28     21     21
     23     21     24     25     16     25     28     26     15     21
     25     25     27     28     21     26     12     19     26     20
     34     22     24     29     28     27     23     30     24     29
     21     41     27     19     38     29     25     30     31     38
    192    181    145    126     99     99     88     70     68     65
     37     16     26     27     28     29     18     41     23     27
     36     33     39     35     32     37     49     47     34     51
     46     52     54     49     44     45     45     35     43     43
     81     62     73     65     57     58     46     59     38     45
     31     21     26     36     30     26     38     27     26     30
     22     28     24     22     20     27     30     29     30     24
     19     24     31     31     30     26     15     35     26     26
     18     19     27     27     30     29     16     19     29     23
     21     17     23     19     20     25     22     22     24     23
     20     26     18     28     24     21     28     18     16     29
     21     16     24     23     24     19     34     23     25     22
     25     15     23     33     17     17     20     24     20     19
     28     23     23     25     26     28     34     16     26     18
     24     28     25     18     28     19     19     23     22     25
     24     23     27     18     17     31     25     15     21     28
     32     28     15     28     18     29     28     27     22     18
     22     18     17     25     23     20     20     21     20     25
     19     21     15     19     22     12     23     17     29     22
     24     22     20     24     20     24     29     25     20     22
     28     24     18     23     18     21     22     23     13     24
     28     25     30     24     19     27     11     25     24     14
     27     27     20     18     26     19     25     21     27     19
     29     19     22     22     13     22     16     16     25     20
     13     14     17     21     23     11     20     25     18     20
     27     28     31     10     19     14     15     24     25     23
     23     24     17     19     22     22     26     13     23     16
     25     21     13     24     19     16     21     30     26     16
     23     17     18     23     23     30     17     21     20      8
     21     23     28     18     23     27     27     19     21     11
     24     16     18     21     18     14     28     30     31     14
     21     21     17     22     15     18     19     21     15     21
     29     17     24     23     25     21     20     25     15     18
     20     15     27     20     19     23     26     19     24     25
     18     20     23     25     21     24     28     20     22     29
     18     14     22     18     20     21     16     18     22     19
     20     22     22     28     22     24     29     19     23     25
     26     21     26     11     28     15     14     28     23     30
     23     26     25     26     20     22     30     34     28     27
     24     25     24     24     25     18     21     26     25     33
     19     22     16     19     18     24     24     24     19     22
     25     28     19     20     21     25     19     25     26     29
     20     19     14     17     21     21     22     25     25     15
     20     25     22     30     16     17     21     16     22     24
     23     18     20     26     24     16     21     17     21     25
     16     27     15     20     24     13     23     35     26     25
     22     19     12     19     19     16     24     19     18     16
     22     28     17     16     15     22     17     27     18     21
     23     14     23     35     20     18     25     21     16     20
     25     23     20     20     21     28     24     22     24     25
     17     11     16     22     19     20     17     25     21     21
     17     23     17     23     20     31     20     28     16     19
     25     31     24     22     27     18     19     24     26     19
    317    301    355    322    300    235    207    199    152    129
     23     14     19     22     12     21     23     20     20     22
     18     24     16     23     24     17     16     21     24     21
     21     20     21     26     28     24     19     17     24     19
     21     19     15     25     18     17     26     13     30     21
     27     20     12     22     23     13     27     15     19     23
     19     25     18     17     28     13     14     22     17     26
     25     27     26     18     18     16     15     19     25     18
     18     26     22     19     14     19     23     21     17     14
     23     22     23     22     20     17     15     13     25     13
     13     21     18     21     19     19     18     16     11     20
     19     21     13     19     21     20     25     21     25     17
     25     15     13     17     23     20     11     25     22     16
     80     97    131    137    163    145    168    141    180    126
     12     21     19     19     19     24     19     25     28     25
     23     19     20     15     18     17     11     16     18     12
     20     25     21     21     21     22     15     14     13     23
     16     17     19     16     19     27     19     18     23     24
     23     25     20     20     18     19     21     14     23     20
     25     19     18     30     13     19     15     22     21     26
     24     16     24     22     25     21     17     28     17     15
     17     22     19     20     20     25     19     19     25     22
     14     24     28     16     20     19     14     18     25     20
     18     14     22     12     20     20     14     29     19     15
     15     19     11     28     21     26     19     19     24     22
     20     21     22     12     33     17     20     16     17     18
     22     13     21     36     14     32     25     24     15     18
     31     31     41     35     35     50     63     66     62     99
     21     33     39     26     36     40     44     39     41     41
     20     23     36     21     21     19     23     25     20     21
     20     15     28     22     26     29     13     23     25     18
     20     18     24     20     20     17     20     27     27     23
     18     25     24     22     17     19     16     20     26     23
     29     21     22     26     19     27     15     16     21     22
     20     20     12     19     18     22     25     20     23     27
     26     31     29     25     31     26     33     27     30     27
     37     40     25     22     33     23     31     20     32     16
     24     23     16     26     27     34     30     35     30     28
     37     40     38     30     35     31     28     33     25     28
     25     18     18     22     23     26     18     21     31     22
     28     25     19     19     27     28     18     11     21     19
     28     18     16     20     14     18     15     23     13     20
     24     25     10     13     23     15     20     15     24     19
     18     18     17     24     17     15     20     19     30     22
     25     24     24     17     16     18     18     22     17     17
     26     20     21     18     13     20     20     17     12     18
     22     20     27     16     15     20     17     24     14     14
     13     24     19     21     12     16     16     20     17     16
     18     18     17     34     21     15     18     22     22     17
     16     20     17     12     20     24     21     22     15     23
     20     12     28     24     16     25     18     19     17     18
     22     22     15     20     23      7     18     14     10     20
     35     33     45     43     68     62     38     72     68    102
     16     13     22     17     25     31     18     19     22     19
     18     25     16     17     18     14     15     15     18     22
     21     12     22     23     14     16     20     14     23     16
     15     18     15     22     14     16     27     17     22     16
     23     21     21     18     15     22     23     22     21     14
     17     18     14     22     23     11     16     22     23     15
     26     34     26     25     31     28     44     38     49     39
     17     20     29     16     11     20     18     20     18     23
     19     19     19     19     18     13     20     14     17     21
     19     18     14     18      8     20     23     21     21     13
     17     16     15     29     14     12     11     14     18     23
     15     22     16     15     17     15     12     23     20     17
     17     11     24     22     18     18     11     21     18     22
     21     15     20     24     16     18     20     22     17     18
     14     20     15     19     19     21     17     16     17     24
     19     17     15     11     21     22     17     25     18     19
     13     18     14     19     11     20     14     19     19     24
     22     17     18     24     10     12     21     17     17     14
     11     11     12     10     22     20     18     18     17     16
     12     14     18     20     21     14     18      8     22     16
     13     19     23     19     23     22     22     20     12     24
     12     14     18     20     24     21     15     15     24     19
     13     17     16     18     19     19     18     23     21     19
     21     19     10     22     17     15     20     10     20     18
     20     18     14     12     19     27     19      8     19     16
     15     20     18     16     18      9      9      6     20     24
      9     18     15     19     20     15     15     11     18     18
     16     18     12     16     23     12     22     17     17     13
     13     12     14     12     20     16     25     15     22     16
     16     17      9      7     20     15     18     14     16     17
     14     18     15     15     13     11     14     16     11     13
     21     11     16     17     11     16     10     14     13     17
     12     14     19     20     11     17     20     12     17     22
     15     18     14     17     19     20     11     17     16     15
     15     21     16     17     18     21     21     16     11     11
     12     21     19     19     23     11     15     16     20     10
     15     17      6     20     10     14     21     17     20     20
     18     11     15     21     21     16     10     15     19     11
     17     15     16     19     17     20      9     17     16     20
     13     24     15     14     11      9     14     13     15     12
     17     11     16     16     13     19     12     15     17     10
     19     21     32     18     19     17     27     27     16     28
     56     48     36     35     40     35     29     32     28     36
     13     15     19     16     16     18     20     17     15     25
     24     12     16     16     15     19     20     14     20     13
     23     15     17     14     20     11     20     12     17     16
     17     11     22     17     14     18     18     13     14     17
     17     17     15     16     19     17     14     15     13     14
     17     18     13     17     15     20     17     12     19     10
     12     14     12     17     12     15     17     12     19     18
     14     17     16     16     12     15     15     14     18     10
     16     21     14     12     15     22     22     20     13     14
     19     15     10     19     24     14     19     15     15     17
     41     28     48     38     24     43     56     58     50     54
     13     10     16     21     18     16     14     12     15     17
     17     13     16     11     25     22     14     16     24     18
     21     13     24     25     15     16     16     15     17     17
     13     20     10     13     12     24     12      9     14     19
     24     18     12     16     13     24     21      9     12     24
     12     18     12     11     14     20     12      9     11      9
     12     18     20     27     25      8     16     16     16     12
     19     19     13     20     20     16     15     12     18     10
     12      9     19     23     13     17     14     12     12     13
     18     15     23     17     29     13     15     11     18     16
    134    115     92     58     48     51     50     39     39     29
     10     12     16     20     24     13     19     11     20      8
     13     15     24     13     21     19     17     13     17     24
     21     11     16     14     22     14     19     16     20     25
     10     17     20     21     12     20     18      9     11     22
      7     16     17     17     21     18     16     13     10     17
     22     27     10     22     19     21     11     10     18     17
     15     10     15     18     19     16     15     21     14     15
     17      8     16     12     24     21     15     12     22     22
    129    114    102     89     77     53     69     42     35     41
     13      5     22     13     10     22     19     14     12     19
     19     20     20     14     10      9     20     15     18     10
     11     18     22     19     17     14     15     17     15     15
     13     14     20     11     14     20     12     14     24     14
     16     14     14     14     15     13     17     20     14     21
     11     17     15     22     23     18     18     15     17     13
     19     21     11     10     10     24     15     15     22     21
     19     22     12     12     23     15     12     23     13     14
     17     17     14      8     15     20     12     15     14     14
     18     13     11     12     15     17     12     14     13     11
     18     15     12     12     16     15     21     16      9     10
     16      8     12     19     11     12     17     22     15     17
     21     11     11     18     25     21     10     12     13     12
    101     73     85     47     55     49     38     39     41     32
     16     19     20     19     18     11     21     25     18     17
     15     18     10     18     17     12     14     22     23     18
     16     14      7     15     15     15     11     12     20     20
     20     11     15      8     13     11     21     17      5      4
     15     19     12     21     15     15     18     14     10     14
     11      7     12     19     14     22     18     13     19     18
     12     24     10     24     20     19     13     19     12     15
     15     12     16     20      9     13     15     15     15     10
      8      9     10     15     14     13     15     14     14     14
     14     13     16     19     16     11     13     17     17     12
     11     17     14     17     19     13     14     12     18     12
     16     14     21     16     25     12     17     19     20     10
      9     22     11     24     11     18     13     17     12     19
     17     15     13     10     13     14     10     21     10     17
     20     25     15     15     12     14     10     18     18     16
      5     24     21     16      9     17     17     11     13     14
     15     20     14     11     16     21     20     15     17     14
     18     19     15     16     17     24     20     12     19     28
     70     52     57     41     42     28     26     28     18     18
     10     15     15     17     17     14     12     18     21     22
     14     14     16     22     18     20     18     23     23     14
     15     17     11     11     14     13     18     14      8     12
     15     10     10      8     17     17     14     14     16     19
     15     11     18     13     16     16     21     13     18     13
     10     14     18     16     11     12     11     10     12     14
      9      7     11     14     12     12     11     10     20     12
     14     21     23     25     11     18     14     19     19     13
     16     17     14     14      9     13     16     19     11     18
     44     30     46     51     50     67     63     55     43     59
     13     15     11     10     14     10     19     13     18     15
     13     18     22     24     18     12      7     16     15     14
     17     17     13     16     10      9     11     11     10     15
     17     17     16     15     17      7     17     13     11     13
     10     14     19     16      8     13     14     17     20     15
     18     15     12     18     22      8     11     19     18     11
     17     12     16     16     17     30     14     20     13     10
     12     13     13     16     10     16     11     18     22     11
     14     13      9     11     16     15     16     15     15     13
     19     13     21     16     18     18     21     17     23     19
     15      8     20     12     18     22     14     11     11     14
     18     17     22     26     22     20     25     16     19     23
     27     33     25     35     24     23     27     19     21     22
     17     14     11     12     17     15     16     11     13     14
     19     13     12     17     20      6     13     11     19     12
     20     27     14     18     20     16     20     11     12     18
     12     16     13     13     20     23     13     15     19     13
     15     12     20     20     17     21     10     19     17     20
     10     11     15     21     18     20      7     20     11      7
     13     24     19      9     13     15     21     15     15     20
     16     12      8     11     10     17     14     14     19     13
     11     14     11     17      6     14     14     17     10     23
     15     23     14     13     22     14     14     10     14     17
     20     13     18     16     19     14     15     13     21     18
     14     13     11     15     16     23      9     13     17     12
      9     14     14     14     11     24     15     15     11     12
     14     14     16     13     19     14     15     13     18      8
     13     18      9     17     13     23     10      9     15      7
     15     10     11     18      8     19     14     11     22     18
     15     15     12     13     13     16     12     10     12      6
     21     16     14     23     17     12     15     12     10     16
     15     15     11     12     14     16     20     16     19     11
     15     17      9     17     13     17     16     20     13     13
      6     12     10     10     14     17     13     10     10     20
     12     15     14      8     13     17      9     15     15     11
     12     12     18     10     11     15     12     14      8      9
     15      9     12     19     17     12      7      6     20     15
     13     11     13      8     11     13     11     21     12      7
     16     18     13     11     10     15     10     18     13     18
     15     17     17     18     17     19     15      9     14     15
     17     18     10     13     16     12     14      8     19      9
     12     23     16     23     11     11     17      9     13     18
     15      8     15     16     11     12     15     18     19     19
     17     15     18     17     13      9     16     19     17     13
     16     24     13     14     16     12     23     16     14     15
     11     14     15     16     18     14     14     16      9     11
     12      7     16     12     11      6     14     19     21     19
     20     20     22     13     13     19     11     11     14     23
     49     43     46     37     29     25     27     27     22     27
     12     12     14     22     14     11     23     21     21     13
     48     42     34     33     35     32     36     29     25     29
     25     20     24     19     18     25     22     14     27     15
     14     14     10     13     17     18     15     13     17     21
     10     13     14     10     11     16     17      5     17     12
      8      9     13     15     15     21      9     25     17     16
     13     13     10     16     15     12     11      7     21     15
     25     21     23     32     31     26     42     42     32     46
     14     17     21     13     16     12     12     12      9     17
     10     14     13     12     13     12     14      8     21     13
     13     17     13     11     13     10     16     20     15      7
     13     23      9     17     10     16     16     16     16     17
     10     15     21      7     10     15     12     15     22     12
      8     13     15     19     17      8     11      8     17     11
     14     18     13     15     18      9     17      9      9     14
     15     12     23     15     12     16     16     13     15     20
     12     17     19     10      9     15     11     14     13     28
     22      7     13     14     16     20     19     12     13     13
     45     44     72     49     60     68     74     90     77     84
     21      8     13     13     18     14     13     17     13     14
     11     17     16     11      8     20     17     11     11      5
     17     22     20     14     12      6      9      8     19      9
     18     14     14      8     12     12     21     14     13     15
     16     10     13     11      6     12     15     15     12     14
     23     23     14     18     18     10     16     13     12      6
     16     10     11     11     11     14     15     13     15     10
     62     58     52     60     51     80     52     45     40     41
     19     13     11     14     12     13     13     16     15     20
      9     14      7     15     13     16     16     13     24     11
     17      9     14     14     15     13      7     13     12     11
     12     26     13     17     20     12     11      9     17     10
     19     23     19     14     16     20     19     23     14     13
     14     12     14     12     12     11     12     12      9     22
     22     14     19     18     18     16     11     10     15     12
     20     10     14     10     18     19     17     16     10     13
     14     15     11      9     10     14     15     12     16     18
     14     17     22     19     26     20     19     26     18     30
     14     17     15     16     16     12     22     14     20     16
      9     18     18     15     12     13     15     11     10     16
     13