File: XRD/DWTR_AR/DWTR_AR.txt
10,1620
10.05,1626
10.1,1505
10.15,1557
10.2,1487
10.25,1544
10.3,1513
10.35,1522
10.4,1547
10.45,1536
10.5,1569
10.55,1499
10.6,1513
10.65,1537
10.7,1517
10.75,1547
10.8,1502
10.85,1573
10.9,1477
10.95,1554
11,1513
11.05,1481
11.1,1512
11.15,1554
11.2,1530
11.25,1548
11.3,1603
11.35,1529
11.4,1514
11.45,1532
11.5,1442
11.55,1556
11.6,1492
11.65,1533
11.7,1495
11.75,1513
11.8,1507
11.85,1507
11.9,1486
11.95,1529
12,1579
12.05,1486
12.1,1526
12.15,1498
12.2,1503
12.25,1483
12.3,1468
12.35,1563
12.4,1466
12.45,1491
12.5,1540
12.55,1507
12.6,1470
12.65,1394
12.7,1465
12.75,1495
12.8,1537
12.85,1451
12.9,1465
12.95,1539
13,1485
13.05,1462
13.1,1477
13.15,1552
13.2,1558
13.25,1555
13.3,1553
13.35,1488
13.4,1545
13.45,1516
13.5,1528
13.55,1526
13.6,1520
13.65,1509
13.7,1462
13.75,1483
13.8,1465
13.85,1396
13.9,1344
13.95,1346
14,1400
14.05,1398
14.1,1376
14.15,1396
14.2,1301
14.25,1322
14.3,1329
14.35,1356
14.4,1323
14.45,1316
14.5,1336
14.55,1342
14.6,1287
14.65,1304
14.7,1328
14.75,1239
14.8,1243
14.85,1288
14.9,1214
14.95,1237
15,1283
15.05,1242
15.1,1230
15.15,1221
15.2,1266
15.25,1272
15.3,1251
15.35,1309
15.4,1246
15.45,1290
15.5,1234
15.55,1227
15.6,1231
15.65,1301
15.7,1195
15.75,1161
15.8,1212
15.85,1143
15.9,1156
15.95,1160
16,1121
16.05,1103
16.1,1111
16.15,1116
16.2,1115
16.25,1135
16.3,1078
16.35,1180
16.4,1163
16.45,1041
16.5,1045
16.55,1109
16.6,1027
16.65,1101
16.7,1105
16.75,1102
16.8,1086
16.85,1110
16.9,1026
16.95,1015
17,1089
17.05,1034
17.1,1072
17.15,1064
17.2,1050
17.25,1055
17.3,1011
17.35,1044
17.4,1071
17.45,1009
17.5,996
17.55,1040
17.6,1031
17.65,970
17.7,980
17.75,988
17.8,1037
17.85,987
17.9,1033
17.95,997
18,1014
18.05,1008
18.1,961
18.15,975
18.2,957
18.25,908
18.3,999
18.35,959
18.4,968
18.45,911
18.5,983
18.55,981
18.6,956
18.65,918
18.7,880
18.75,934
18.8,912
18.85,919
18.9,911
18.95,911
19,901
19.05,913
19.1,918
19.15,927
19.2,911
19.25,960
19.3,904
19.35,934
19.4,903
19.45,904
19.5,893
19.55,916
19.6,940
19.65,896
19.7,935
19.75,912
19.8,846
19.85,882
19.9,906
19.95,924
20,912
20.05,843
20.1,898
20.15,882
20.2,852
20.25,872
20.3,894
20.35,906
20.4,920
20.45,930
20.5,881
20.55,951
20.6,935
20.65,861
20.7,910
20.75,844
20.8,865
20.85,866
20.9,868
20.95,835
21,907
21.05,839
21.1,838
21.15,834
21.2,873
21.25,851
21.3,803
21.35,821
21.4,819
21.45,840
21.5,884
21.55,804
21.6,825
21.65,793
21.7,820
21.75,763
21.8,846
21.85,780
21.9,782
21.95,826
22,805
22.05,839
22.1,816
22.15,787
22.2,804
22.25,788
22.3,865
22.35,772
22.4,808
22.45,803
22.5,756
22.55,803
22.6,809
22.65,831
22.7,801
22.75,784
22.8,830
22.85,789
22.9,749
22.95,773
23,760
23.05,799
23.1,778
23.15,797
23.2,759
23.25,728
23.3,749
23.35,729
23.4,751
23.45,759
23.5,814
23.55,770
23.6,779
23.65,766
23.7,808
23.75,679
23.8,769
23.85,770
23.9,744
23.95,732
24,774
24.05,731
24.1,722
24.15,754
24.2,722
24.25,755
24.3,708
24.35,724
24.4,721
24.45,748
24.5,756
24.55,749
24.6,750
24.65,763
24.7,774
24.75,803
24.8,722
24.85,704
24.9,729
24.95,733
25,692
25.05,775
25.1,728
25.15,778
25.2,727
25.25,761
25.3,734
25.35,761
25.4,701
25.45,754
25.5,721
25.55,726
25.6,775
25.65,706
25.7,668
25.75,706
25.8,723
25.85,739
25.9,772
25.95,764
26,756
26.05,755
26.1,837
26.15,868
26.2,946
26.25,947
26.3,960
26.35,900
26.4,842
26.45,774
26.5,768
26.55,711
26.6,739
26.65,727
26.7,678
26.75,766
26.8,748
26.85,724
26.9,700
26.95,790
27,694
27.05,728
27.1,718
27.15,707
27.2,704
27.25,711
27.3,739
27.35,673
27.4,708
27.45,719
27.5,701
27.55,708
27.6,716
27.65,661
27.7,714
27.75,669
27.8,686
27.85,724
27.9,666
27.95,664
28,704
28.05,728
28.1,660
28.15,710
28.2,689
28.25,731
28.3,678
28.35,658
28.4,671
28.45,676
28.5,704
28.55,663
28.6,693
28.65,677
28.7,693
28.75,680
28.8,647
28.85,732
28.9,696
28.95,682
29,722
29.05,693
29.1,683
29.15,652
29.2,694
29.25,721
29.3,685
29.35,689
29.4,706
29.45,641
29.5,685
29.55,692
29.6,661
29.65,684
29.7,691
29.75,682
29.8,660
29.85,698
29.9,715
29.95,685
30,693
30.05,669
30.1,677
30.15,680
30.2,675
30.25,656
30.3,696
30.35,710
30.4,705
30.45,634
30.5,664
30.55,690
30.6,696
30.65,682
30.7,663
30.75,692
30.8,683
30.85,661
30.9,641
30.95,672
31,689
31.05,711
31.1,665
31.15,697
31.2,694
31.25,661
31.3,614
31.35,749
31.4,701
31.45,686
31.5,738
31.55,685
31.6,638
31.65,690
31.7,695
31.75,699
31.8,682
31.85,697
31.9,669
31.95,672
32,663
32.05,679
32.1,640
32.15,667
32.2,623
32.25,692
32.3,672
32.35,702
32.4,692
32.45,716
32.5,679
32.55,674
32.6,715
32.65,691
32.7,754
32.75,733
32.8,665
32.85,653
32.9,703
32.95,666
33,665
33.05,697
33.1,677
33.15,670
33.2,667
33.25,639
33.3,693
33.35,707
33.4,711
33.45,678
33.5,700
33.55,685
33.6,677
33.65,673
33.7,701
33.75,688
33.8,692
33.85,763
33.9,737
33.95,722
34,668
34.05,719
34.1,715
34.15,739
34.2,759
34.25,759
34.3,722
34.35,739
34.4,779
34.45,758
34.5,741
34.55,767
34.6,764
34.65,736
34.7,752
34.75,755
34.8,754
34.85,713
34.9,754
34.95,697
35,789
35.05,788
35.1,728
35.15,752
35.2,754
35.25,751
35.3,754
35.35,765
35.4,706
35.45,711
35.5,746
35.55,687
35.6,745
35.65,695
35.7,750
35.75,734
35.8,746
35.85,694
35.9,755
35.95,767
36,727
36.05,811
36.1,779
36.15,765
36.2,779
36.25,747
36.3,723
36.35,736
36.4,743
36.45,743
36.5,733
36.55,753
36.6,775
36.65,764
36.7,772
36.75,755
36.8,701
36.85,746
36.9,722
36.95,751
37,743
37.05,769
37.1,701
37.15,731
37.2,729
37.25,712
37.3,708
37.35,753
37.4,754
37.45,743
37.5,717
37.55,663
37.6,737
37.65,714
37.7,746
37.75,728
37.8,747
37.85,726
37.9,701
37.95,688
38,702
38.05,685
38.1,736
38.15,759
38.2,730
38.25,742
38.3,733
38.35,694
38.4,702
38.45,708
38.5,742
38.55,729
38.6,727
38.65,697
38.7,734
38.75,701
38.8,715
38.85,723
38.9,747
38.95,681
39,713
39.05,754
39.1,687
39.15,718
39.2,790
39.25,745
39.3,663
39.35,679
39.4,696
39.45,664
39.5,717
39.55,734
39.6,806
39.65,760
39.7,765
39.75,770
39.8,719
39.85,708
39.9,691
39.95,751
40,737
40.05,747
40.1,752
40.15,729
40.2,695
40.25,684
40.3,726
40.35,727
40.4,685
40.45,741
40.5,709
40.55,689
40.6,689
40.65,694
40.7,714
40.75,759
40.8,715
40.85,683
40.9,680
40.95,693
41,696
41.05,688
41.1,682
41.15,663
41.2,660
41.25,761
41.3,684
41.35,706
41.4,656
41.45,677
41.5,702
41.55,681
41.6,688
41.65,625
41.7,694
41.75,745
41.8,684
41.85,705
41.9,690
41.95,607
42,705
42.05,734
42.1,724
42.15,674
42.2,698
42.25,657
42.3,714
42.35,699
42.4,664
42.45,692
42.5,692
42.55,647
42.6,669
42.65,707
42.7,660
42.75,647
42.8,631
42.85,680
42.9,702
42.95,674
43,675
43.05,604
43.1,621
43.15,672
43.2,620
43.25,684
43.3,647
43.35,639
43.4,719
43.45,667
43.5,660
43.55,676
43.6,693
43.65,688
43.7,650
43.75,684
43.8,637
43.85,636
43.9,693
43.95,689
44,688
44.05,667
44.1,670
44.15,599
44.2,641
44.25,638
44.3,647
44.35,639
44.4,625
44.45,694
44.5,667
44.55,626
44.6,637
44.65,658
44.7,685
44.75,660
44.8,658
44.85,615
44.9,634
44.95,643
45,601
45.05,674
45.1,735
45.15,672
45.2,611
45.25,664
45.3,660
45.35,694
45.4,680
45.45,681
45.5,652
45.55,657
45.6,675
45.65,648
45.7,590
45.75,654
45.8,629
45.85,602
45.9,622
45.95,614
46,662
46.05,658
46.1,639
46.15,611
46.2,637
46.25,642
46.3,614
46.35,672
46.4,630
46.45,598
46.5,603
46.55,609
46.6,663
46.65,677
46.7,629
46.75,652
46.8,621
46.85,659
46.9,691
46.95,637
47,620
47.05,633
47.1,619
47.15,669
47.2,616
47.25,586
47.3,660
47.35,640
47.4,670
47.45,610
47.5,645
47.55,635
47.6,626
47.65,600
47.7,632
47.75,631
47.8,640
47.85,637
47.9,588
47.95,626
48,606
48.05,658
48.1,655
48.15,628
48.2,639
48.25,621
48.3,610
48.35,610
48.4,614
48.45,584
48.5,598
48.55,621
48.6,607
48.65,625
48.7,601
48.75,617
48.8,609
48.85,608
48.9,567
48.95,617
49,591
49.05,582
49.1,590
49.15,612
49.2,605
49.25,620
49.3,620
49.35,616
49.4,624
49.45,676
49.5,581
49.55,605
49.6,644
49.65,670
49.7,675
49.75,676
49.8,619
49.85,632
49.9,589
49.95,609
50,639
50.05,615
50.1,558
50.15,630
50.2,580
50.25,635
50.3,602
50.35,588
50.4,615
50.45,602
50.5,632
50.55,613
50.6,602
50.65,595
50.7,600
50.75,646
50.8,574
50.85,597
50.9,601
50.95,609
51,614
51.05,639
51.1,671
51.15,582
51.2,615
51.25,597
51.3,625
51.35,598
51.4,618
51.45,601
51.5,588
51.55,645
51.6,593
51.65,620
51.7,587
51.75,586
51.8,539
51.85,598
51.9,597
51.95,583
52,625
52.05,634
52.1,578
52.15,645
52.2,563
52.25,587
52.3,615
52.35,641
52.4,628
52.45,622
52.5,626
52.55,571
52.6,615
52.65,604
52.7,651
52.75,582
52.8,647
52.85,589
52.9,576
52.95,596
53,614
53.05,646
53.1,626
53.15,582
53.2,566
53.25,600
53.3,608
53.35,603
53.4,585
53.45,601
53.5,626
53.55,590
53.6,645
53.65,606
53.7,604
53.75,596
53.8,604
53.85,630
53.9,626
53.95,621
54,616
54.05,609
54.1,611
54.15,617
54.2,621
54.25,564
54.3,621
54.35,614
54.4,621
54.45,610
54.5,648
54.55,645
54.6,677
54.65,616
54.7,608
54.75,613
54.8,627
54.85,584
54.9,651
54.95,633
55,636
55.05,640
55.1,614
55.15,602
55.2,626
55.25,562
55.3,574
55.35,578
55.4,571
55.45,580
55.5,611
55.55,558
55.6,539
55.65,636
55.7,601
55.75,580
55.8,568
55.85,621
55.9,625
55.95,617
56,582
56.05,547
56.1,577
56.15,581
56.2,605
56.25,602
56.3,591
56.35,595
56.4,573
56.45,611
56.5,582
56.55,575
56.6,589
56.65,624
56.7,557
56.75,571
56.8,606
56.85,620
56.9,640
56.95,594
57,612
57.05,611
57.1,574
57.15,581
57.2,584
57.25,591
57.3,610
57.35,622
57.4,611
57.45,642
57.5,572
57.55,582
57.6,564
57.65,589
57.7,603
57.75,621
57.8,602
57.85,595
57.9,562
57.95,559
58,598
58.05,593
58.1,617
58.15,621
58.2,597
58.25,623
58.3,561
58.35,611
58.4,631
58.45,578
58.5,590
58.55,586
58.6,615
58.65,605
58.7,570
58.75,630
58.8,608
58.85,600
58.9,543
58.95,539
59,626
59.05,607
59.1,647
59.15,569
59.2,614
59.25,587
59.3,632
59.35,606
59.4,607
59.45,579
59.5,658
59.55,671
59.6,581
59.65,656
59.7,602
59.75,637
59.8,623
59.85,655
59.9,637
59.95,606
60,549