File: TGA-MS/DWTRMN.D/tic_front.csv
D:\GAILLARD\WALLACE_SAMUEL\DWTRMN.D 22 Sep 21  10:04 am
Start of data points
0.0960167,140978
0.18365,141814
0.271267,133642
0.3589,128152
0.446533,125520
0.534167,128229
0.6218,129098
0.709417,131069
0.79705,132024
0.884683,133759
0.972317,135367
1.05995,136270
1.14758,137798
1.2352,138946
1.32283,76419
1.41047,53238
1.4981,33819
1.58573,32112
1.67337,31207
1.76098,31688
1.84862,31093
1.93625,31493
2.02388,31318
2.11152,30843
2.19913,32003
2.28677,32218
2.3744,729127
2.46203,33574
2.54967,33259
2.6373,31452
2.72492,31798
2.81255,31333
2.90018,31302
2.98782,30889
3.07545,31447
3.16308,30853
3.2507,31538
3.33833,2394223
3.42597,35280
3.5136,33758
3.60123,31452
3.68885,31195
3.77648,30655
3.86412,31053
3.95175,30899
4.03938,30581
4.12702,31031
4.21463,31364
4.30227,32448
4.3899,91927
4.47753,33198
4.56517,33219
4.6528,31223
4.74042,30946
4.82805,31172
4.91568,31131
5.00332,31162
5.09095,30596
5.17857,31083
5.2662,31199
5.35383,2551322
5.44147,33818
5.5291,33475
5.61673,31185
5.70435,30905
5.79198,31148
5.87962,31086
5.96725,31077
6.05488,31125
6.1425,31495
6.23013,30294
6.31777,59075
6.4054,38728
6.49303,33148
6.58067,32257
6.66828,30430
6.75592,31147
6.84355,30779
6.93118,30256
7.01882,30044
7.10645,30696
7.19407,30748
7.2817,31354
7.36933,813075
7.45697,33480
7.5446,32762
7.63222,31414
7.71985,31114
7.80748,29997
7.89512,30950
7.98275,30501
8.07038,30671
8.158,31147
8.24563,31075
8.33327,1140666
8.4209,33915
8.50853,32527
8.59617,31523
8.68378,30505
8.77142,31703
8.85905,31343
8.94668,30766
9.03432,31048
9.12193,30840
9.20957,30790
9.2972,32509
9.38483,125899
9.47247,33228
9.5601,32618
9.64772,31044
9.73535,30737
9.82298,30849
9.91062,30856
9.99825,31539
10.0859,29935
10.1735,31881
10.2611,30979
10.3488,2296773
10.4364,34117
10.524,32731
10.6117,31336
10.6993,31144
10.7869,31329
10.8746,30571
10.9622,30759
11.0498,30071
11.1374,30714
11.2251,30636
11.3127,34406
11.4003,43932
11.488,33232
11.5756,32635
11.6632,31215
11.7509,30710
11.8385,30645
11.9261,30316
12.0138,30504
12.1014,30812
12.189,30944
12.2766,30673
12.3643,1179459
12.4519,33712
12.5395,32039
12.6272,30965
12.7148,31104
12.8024,30420
12.8901,30600
12.9777,30621
13.0653,30090
13.1529,31015
13.2406,30654
13.3282,442061
13.4158,35522
13.5035,33400
13.5911,30740
13.6787,30582
13.7664,30467
13.854,30481
13.9416,30820
14.0293,30341
14.1169,30616
14.2045,30399
14.2921,32384
14.3798,207191
14.4674,32242
14.555,32741
14.6427,30199
14.7303,30793
14.8179,30531
14.9056,30789
14.9932,30942
15.0808,30754
15.1684,31014
15.2561,30504
15.3437,2091154
15.4313,33876
15.519,33072
15.6066,31015
15.6942,30519
15.7819,30940
15.8695,30226
15.9571,31023
16.0447,31150
16.1324,30465
16.22,30958
16.3076,31632
16.3953,52275
16.4829,33162
16.5705,32508
16.6581,30686
16.7458,31019
16.8334,30993
16.9211,30856
17.0087,30479
17.0963,30476
17.1839,30498
17.2716,30796
17.3592,1576922
17.4468,32967
17.5345,32776
17.6221,30958
17.7097,30271
17.7974,30690
17.885,30710
17.9726,30265
18.0602,31006
18.1479,30346
18.2355,31030
18.3231,140887
18.4108,35482
18.4984,32838
18.586,31864
18.6737,30365
18.7613,30907
18.8489,30475
18.9366,31065
19.0242,30765
19.1118,30896
19.1994,29806
19.2871,31287
19.3747,371091
19.4623,33073
19.55,32880
19.6376,31039
19.7252,30730
19.8129,30111
19.9005,30923
19.9881,30068
20.0757,30668
20.1634,30625
20.251,30939
20.3386,1614358
20.4263,34037
20.5139,32469
20.6015,30580
20.6892,30804
20.7768,31171
20.8644,30618
20.9521,30691
21.0397,30753
21.1273,30426
21.2149,30947
21.3026,32072
21.3902,71791
21.4778,33124
21.5655,32579
21.6531,30688
21.7407,30495
21.8284,30373
21.916,30964
22.0036,31066
22.0912,31455
22.1789,30467
22.2665,30818
22.3541,1994788
22.4418,32896
22.5294,32496
22.617,30498
22.7047,30661
22.7923,30871
22.8799,30601
22.9675,30066
23.0552,30733
23.1428,30310
23.2304,30153
23.3181,51653
23.4057,37967
23.4933,32625
23.581,31927
23.6686,30854
23.7562,30180
23.8439,30665
23.9315,31040
24.0191,30200
24.1067,30576
24.1944,30544
24.282,30743
24.3696,682388
24.4573,33490
24.5449,32461
24.6325,30746
24.7202,30960
24.8078,30556
24.8954,30589
24.983,31046
25.0707,30773
25.1583,30094
25.2459,31052
25.3336,974602
25.4212,34190
25.5088,32485
25.5965,31019
25.6841,30937
25.7717,31080
25.8594,31367
25.947,30539
26.0346,30551
26.1222,29955
26.2099,30593
26.2975,31892
26.3851,118588
26.4728,32955
26.5604,32111
26.648,30947
26.7357,30392
26.8233,29406
26.9109,29903
26.9985,30386
27.0862,30557
27.1738,31193
27.2614,30622
27.3491,2205165
27.4367,32992
27.5243,31825
27.612,30621
27.6996,31029
27.7872,30645
27.8748,30757
27.9625,29686
28.0501,30103
28.1377,30200
28.2254,30866
28.313,34403
28.4006,43335
28.4883,32246
28.5759,31037
28.6635,30363
28.7512,30318
28.8388,30329
28.9264,30740
29.014,30688
29.1017,30765
29.1893,30990
29.2769,29782
29.3646,1182879
29.4522,33192
29.5398,31901
29.6275,30118
29.7151,31216
29.8027,30791
29.8903,30500
29.978,30985
30.0656,30758
30.1532,30651
30.2409,31003
30.3285,426921
30.4161,34181
30.5038,32033
30.5914,31008
30.679,30464
30.7667,30302
30.8543,30546
30.9419,30752
31.0295,30320
31.1172,30793
31.2048,30322
31.2924,31495
31.3801,218952
31.4677,32957
31.5553,31899
31.643,30333
31.7306,29940
31.8182,29725
31.9058,30191
31.9935,30125
32.0811,30904
32.1687,30630
32.2564,30167
32.344,2179180
32.4316,33868
32.5193,32268
32.6069,30507
32.6945,30666
32.7822,30256
32.8698,30138
32.9574,30312
33.045,30176
33.1327,30501
33.2203,29981
33.3079,32070
33.3956,54046
33.4832,32109
33.5708,32495
33.6585,30351
33.7461,30691
33.8337,30474
33.9213,30029
34.009,30009
34.0966,30859
34.1842,30460
34.2719,30931
34.3595,1775230
34.4471,33650
34.5348,32478
34.6224,30956
34.71,30484
34.7976,30050
34.8853,30231
34.9729,30264
35.0605,31039
35.1482,30009
35.2358,30387
35.3234,150836
35.4111,35964
35.4987,32572
35.5863,31117
35.674,30213
35.7616,30245
35.8492,30492
35.9368,30849
36.0245,30027
36.1121,30394
36.1997,30625
36.2874,31144
36.375,435459
36.4626,32888
36.5502,32252
36.6379,31043
36.7255,30981
36.8131,30182
36.9008,29978
36.9884,30694
37.076,31135
37.1637,30218
37.2513,30744
37.3389,1820978
37.4265,34101
37.5142,32370
37.6018,30653
37.6895,30824
37.7771,30801
37.8647,30023
37.9523,30217
38.04,30579
38.1276,30913
38.2152,29552
38.3028,31743
38.3905,85488
38.4781,32586
38.5658,31862
38.6534,30135
38.741,29943
38.8286,29914
38.9163,29922
39.0039,30719
39.0915,29547
39.1792,30042
39.2668,30468
39.3544,2326405
39.4421,34108
39.5297,32177
39.6173,30240
39.705,29916
39.7926,30384
39.8802,30218
39.9678,29937
40.0555,29940
40.1431,29483
40.2307,31544
40.3184,53685
40.406,40946
40.4936,32310
40.5813,31304
40.6689,29354
40.7565,30183
40.8441,30433
40.9318,30257
41.0194,30486
41.107,29986
41.1947,30766
41.2823,30257
41.3699,901507
41.4576,32625
41.5452,31983
41.6328,31021
41.7204,30757
41.8081,30277
41.8957,30191
41.9833,30082
42.071,29981
42.1586,30239
42.2462,30396
42.3339,1121410
42.4215,33712
42.5091,32731
42.5968,31333
42.6844,30749
42.772,30297
42.8596,30330
42.9473,30083
43.0349,30245
43.1225,30783
43.2101,30566
43.2978,32059
43.3854,146117
43.4731,32495
43.5607,31788
43.6483,31133
43.7359,30396
43.8236,30029
43.9112,30064
43.9988,29373
44.0865,30117
44.1741,30075
44.2617,29744
44.3494,2589569
44.437,33720
44.5246,32274
44.6123,30033
44.6999,30233
44.7875,30139
44.8751,30155
44.9628,30464
45.0504,29956
45.138,30305
45.2257,30180
45.3133,33942
45.4009,45446
45.4886,31898
45.5762,31101
45.6638,30375
45.7514,29793
45.8391,29856
45.9267,30322
46.0143,30423
46.102,30176
46.1896,30047
46.2772,29919
46.3649,1507300
46.4525,33232
46.5401,32274
46.6277,30343
46.7154,30821
46.803,29849
46.8906,30168
46.9783,29719
47.0659,30004
47.1535,29817
47.2412,30456
47.3288,495336
47.4164,34845
47.504,30764
47.5917,30088
47.6793,29773
47.7669,29445
47.8546,30279
47.9422,30840
48.0298,30847
48.1175,30171
48.2051,30826
48.2927,30903
48.3804,285006
48.468,32510
48.5556,31998
48.6432,30105
48.7309,30117
48.8185,29691
48.9061,30286
48.9938,30751
49.0814,30189
49.169,30342
49.2567,30172
49.3443,2488033
49.4319,32647
49.5196,32142
49.6072,31083
49.6948,29860
49.7824,29794
49.8701,29578
49.9577,30092
50.0453,29864
50.133,30353
50.2206,30183
50.3082,31509
50.3959,58461
50.4835,32179
50.5711,31585
50.6587,30004
50.7464,30218
50.834,29922
50.9216,30850
51.0093,30043
51.0969,30275
51.1845,30124
51.2722,29849
51.3598,2132016
51.4474,32371
51.5351,32266
51.6227,29556
51.7103,29340
51.7979,30246
51.8856,30114
51.9732,30143
52.0608,29995
52.1485,29718
52.2361,30251
52.3237,158554
52.4114,36610
52.499,31633
52.5866,31008
52.6742,30692
52.7619,29606
52.8495,29022
52.9371,29619
53.0248,31021
53.1124,30695
53.2,30195
53.2876,30651
53.3753,547142
53.4629,31896
53.5505,31074
53.6382,30025
53.7258,29245
53.8134,29706
53.9011,30376
53.9887,29524
54.0763,30937
54.164,30211
54.2516,30259
54.3392,2077703
54.4269,32353
54.5145,31609
54.6021,30529
54.6897,29857
54.7774,29857
54.865,30114
54.9526,30007
55.0403,30298
55.1279,29699
55.2155,30216
55.3032,32055
55.3908,93555
55.4784,32012
55.566,31802
55.6537,30570
55.7413,30474
55.8289,29744
55.9166,29523
56.0042,30320
56.0918,29684
56.1795,30099
56.2671,30294
56.3547,2607922
56.4424,32404
56.53,31594
56.6176,29896
56.7052,29661
56.7929,29775
56.8805,29106
56.9681,30278
57.0558,29818
57.1434,30060
57.231,29802
57.3187,54212
57.4063,37943
57.4939,31923
57.5815,31246
57.6692,29056
57.7568,29952
57.8444,29753
57.9321,30071
58.0197,29719
58.1073,30081
58.195,28950
58.2826,29942
58.3702,1032746
58.4579,31883
58.5455,32374
58.6331,29626
58.7207,30164
58.8084,29896
58.896,30183
58.9836,29505
59.0713,29368
59.1589,29918
59.2465,29221
59.3342,1261979
59.4218,33937
59.5094,32020
59.597,30480
59.6847,29502
59.7723,29372
59.8599,29938
59.9476,29765
60.0352,29431
60.1228,30762
60.2105,30189
60.2981,31431
60.3857,164617
60.4733,32181
60.561,31790
60.6486,30096
60.7362,29641
60.8239,30255
60.9115,29651
60.9991,30174
61.0868,29757
61.1744,29574
61.262,29424
61.3497,2821304
61.4373,32720
61.5249,31774
61.6125,30209
61.7002,29708
61.7878,29934
61.8754,29073
61.9631,29568
62.0507,29865
62.1383,29568
62.226,29729
62.3136,33799
62.4012,45654
62.4888,31890
62.5765,31186
62.6641,30200
62.7517,29512
62.8394,30216
62.927,30130
63.0146,30092
63.1023,29397
63.1899,29870
63.2775,29914
63.3652,1674523
63.4528,32573
63.5404,32299
63.628,29736
63.7157,28890
63.8033,30195
63.8909,30163
63.9786,29142
64.0662,29719
64.1538,30301
64.2415,29977
64.3291,509211
64.4167,33377
64.5043,31403
64.592,30651
64.6796,29997
64.7672,29554
64.8549,29506
64.9425,30032
65.0301,29890
65.1178,29628
65.2054,29437
65.293,31200
65.3807,310330
65.4683,31989
65.5559,30605
65.6435,29756
65.7312,29091
65.8188,29826
65.9064,29878
65.9941,29742
66.0817,29937
66.1693,29432
66.257,29974
66.3446,2736213
66.4322,32467
66.5198,31672
66.6075,30076
66.6951,29990
66.7827,28857
66.8704,29576
66.958,28983
67.0456,29618
67.1333,30713
67.2209,30325
67.3085,30793
67.3961,60558
67.4838,31835
67.5714,32042
67.659,29448
67.7467,29100
67.8343,29858
67.9219,28792
68.0096,29668
68.0972,29379
68.1848,29594
68.2725,29624
68.3601,2447568
68.4477,31859
68.5353,31621
68.623,29057
68.7106,29348
68.7982,29161
68.8859,29433
68.9735,30289
69.0611,29363
69.1488,30414
69.2364,29925
69.324,157860
69.4116,36261
69.4993,31622
69.5869,29969
69.6745,29013
69.7622,30329
69.8498,29476
69.9374,29855
70.0251,28624
70.1127,29405
70.2003,29321
70.288,29362
70.3756,674928
70.4632,31092
70.5508,31189
70.6385,29144
70.7261,30057
70.8137,29461
70.9014,29493
70.989,30195
71.0766,29836
71.1643,29698
71.2519,29494
71.3395,2325785
71.4271,32547
71.5148,31323
71.6024,29144
71.69,28828
71.7777,29341
71.8653,29287
71.9529,30315
72.0406,29620
72.1282,29660
72.2158,30555
72.3034,31505
72.3911,103309
72.4787,32135
72.5663,30777
72.654,29167
72.7416,28833
72.8292,29227
72.9168,29296
73.0045,29383
73.0921,29599
73.1797,29373
73.2674,29827
73.355,3329574
73.4426,31954
73.5303,31172
73.6179,29886
73.7055,28421
73.7932,29110
73.8808,29446
73.9684,29781
74.056,29304
74.1437,29574
74.2313,29326
74.3189,51929
74.4066,40361
74.4942,31960
74.5818,30465
74.6695,29835
74.7571,29512
74.8447,29951
74.9324,29881
75.02,29566
75.1076,28997
75.1953,28770
75.2829,29373
75.3705,1610453
75.4581,31170
75.5458,31936
75.6334,29750
75.721,29935
75.8087,28940
75.8963,28516
75.9839,29542
76.0716,30477
76.1592,28692
76.2468,29366
76.3344,1627706
76.4221,33725
76.5097,31381
76.5973,29144
76.685,29789
76.7726,29441
76.8602,29438
76.9479,29734
77.0355,28916
77.1231,30195
77.2108,29812
77.2984,31180
77.386,250504
77.4736,30909
77.5613,31513
77.6489,29570
77.7365,29278
77.8242,28798
77.9118,29176
77.9994,30036
78.0871,29555
78.1747,29336
78.2623,29678
78.3499,4132594
78.4376,32677
78.5252,30861
78.6128,30305
78.7005,29077
78.7881,28427
78.8757,29281
78.9634,29175
79.051,29345
79.1386,29314
79.2263,29714
79.3139,32135
79.4015,49574
79.4891,30554
79.5768,29929
79.6644,29512
79.752,30081
79.8397,29251
79.9273,29341
80.0149,29756
80.1026,29133
80.1902,29304
80.2778,29037
80.3654,2110906
80.4531,31379
80.5407,30619
80.6283,29417
80.716,29402
80.8036,28840
80.8912,29323
80.9789,29097
81.0665,29051
81.1541,29833
81.2417,29442
81.3294,569607
81.417,33473
81.5046,30307
81.5923,30114
81.6799,29757
81.7675,28812
81.8552,29064
81.9428,29377
82.0304,29489
82.1181,29643
82.2057,28553
82.2933,30033
82.3809,353403
82.4686,31934
82.5562,30549
82.6438,29845
82.7315,28976
82.8191,29545
82.9067,29221
82.9943,29004
83.082,29353
83.1696,29268
83.2572,29140
83.3449,2873096
83.4325,32220
83.5201,31009
83.6078,28967
83.6954,29626
83.783,28759
83.8706,29756
83.9583,29146
84.0459,29549
84.1336,29820
84.2212,29504
84.3088,31374
84.3964,63307
84.4841,31340
84.5717,29883
84.6593,29262
84.7469,28718
84.8346,29078
84.9222,28605
85.0099,29433
85.0975,29525
85.1851,29078
85.2727,29443
85.3604,2524861
85.448,31492
85.5356,30576
85.6233,29046
85.7109,28707
85.7985,29302
85.8862,28551
85.9738,28786
86.0614,28773
86.149,30131
86.2367,28678
86.3243,174559
86.4119,34876
86.4996,30016
86.5872,29861
86.6748,29409
86.7625,28546
86.8501,29098
86.9377,29229
87.0254,29257
87.113,28200
87.2006,29202
87.2882,29591
87.3759,693115
87.4635,30847
87.5511,30819
87.6388,28539
87.7264,28896
87.814,29123
87.9017,29287
87.9893,29251
88.0769,29113
88.1645,28970
88.2522,29179
88.3398,2380479
88.4274,32142
88.5151,30843
88.6027,29659
88.6903,29345
88.778,28720
88.8656,28254
88.9532,29182
89.0409,28269
89.1285,29065
89.2161,29212
89.3037,30585
89.3914,105397
89.479,30764
89.5666,30610
89.6543,29537
89.7419,28546
89.8295,29166
89.9172,29155
90.0048,28448
90.0924,28434
90.18,29294
90.2677,28953
90.3553,3055968
90.4429,30952
90.5306,30664
90.6182,29434
90.7058,28742
90.7935,29107
90.8811,29473
90.9687,29474
91.0564,28602
91.144,29256
91.2316,29060
91.3192,55475
91.4069,39604
91.4945,31190
91.5821,30576
91.6698,29032
91.7574,29254
91.845,28954
91.9327,28953
92.0203,28977
92.1079,29026
92.1955,28722
92.2832,28651
92.3708,1379086
92.4584,31430
92.5461,31028
92.6337,28599
92.7213,29144
92.809,28610
92.8966,28379
92.9842,29034
93.0718,29011
93.1595,28665
93.2471,28617
93.3347,1488978
93.4224,32015
93.51,30611
93.5976,29583
93.6853,28725
93.7729,28808
93.8605,28797
93.9481,28543
94.0358,28325
94.1234,28818
94.211,28730
94.2987,30071
94.3863,210372
94.4739,30423
94.5616,30611
94.6492,28938
94.7368,28916
94.8244,29024
94.9121,29252
94.9997,29252
95.0873,28513
95.175,28715
95.2626,28149
95.3502,3259243
95.4379,31303
95.5255,30240
95.6131,28536
95.7007,28816
95.7884,28998
95.876,29131
95.9637,28619
96.0513,29116
96.1389,28225
96.2265,29190
96.3142,32093
96.4018,48633
96.4894,30986
96.5771,30495
96.6647,29286
96.7523,28379
96.84,28981
96.9276,28930
97.0152,28640
97.1028,28517
97.1905,28686
97.2781,28350
97.3657,2150980
97.4534,30444
97.541,29967
97.6286,27914
97.7163,27686
97.8039,28506
97.8915,28342
97.9792,28216
98.0668,28682
98.1544,28913
98.242,28449
98.3297,596499
98.4173,33789
98.5049,30850
98.5926,28390
98.6802,27818
98.7678,28876
98.8555,28291
98.9431,28848
99.0307,28649
99.1183,29443
99.206,28621
99.2936,29787
99.3812,422279
99.4689,30838
99.5565,30307
99.6441,28457
99.7318,28534
99.8194,28908
99.907,29110
99.9946,28859
100.082,29044
100.17,28475
100.258,29127
100.345,3096351
100.433,31672
100.52,29589
100.608,29140
100.696,28007
100.783,29168
100.871,28882
100.959,28904
101.046,28235
101.134,28040
101.221,27756
101.309,30125
101.397,71768
101.484,29504
101.572,29444
101.66,28688
101.747,28349
101.835,28132
101.923,28016
102.01,28320
102.098,28899
102.185,28184
102.273,28477
102.361,29049
102.448,28271
102.536,28431
102.624,28972
102.711,28941
102.799,28486
102.886,28493
102.974,29083
103.062,29318
103.149,28466
103.237,28718
103.325,28585
103.412,28342
103.5,28651
103.587,28530
103.675,28212
103.763,28748
103.85,29022
103.938,29573
104.026,28741
104.113,29271
104.201,29552
104.289,28727
104.376,28178
104.464,28776
104.551,28385
104.639,29028
104.727,28926
104.814,28282
104.902,29806
104.99,28445
105.077,28169
105.165,28825
105.252,29596
105.34,28934
105.428,28902
105.515,29125
105.603,28251
105.691,29385
105.778,28554
105.866,29282
105.954,28980
106.041,28931
106.129,28574
106.216,28864
106.304,29061
106.392,28767
106.479,28945
106.567,28565
106.655,29456
106.742,28910
106.83,29132
106.917,29063
107.005,29185
107.093,29199
107.18,28899
107.268,29416
107.356,29130
107.443,28503
107.531,28581
107.618,28834
107.706,29442
107.794,29709
107.881,29676
107.969,29622
108.057,29281
108.144,29090
108.232,29222
108.32,28584
108.407,29968
108.495,29551
108.582,29354
108.67,29246
108.758,29941
108.845,30041
108.933,29319
109.021,28490
109.108,29385
109.196,29943
109.283,29594
109.371,29536
109.459,29986
109.546,28837
109.634,29606
109.722,28622
109.809,29246
109.897,29609
109.985,29129
110.072,29885
110.16,29603
110.247,29586
110.335,29061
110.423,30136
110.51,29780
110.598,29930
110.686,30299
110.773,29112
110.861,28877
110.948,30997
111.036,29855
111.124,28940
111.211,29340
111.299,29556
111.387,29599
111.474,28930
111.562,31052
111.649,29148
111.737,30053
111.825,30004
111.912,29360
112,29571
112.088,30381
112.175,30165
112.263,29340
112.351,29323
112.438,29725
112.526,30927
112.613,29505
112.701,30124
112.789,30019
112.876,29170
112.964,29909
113.052,30124
113.139,30813
113.227,29171
113.314,30088
113.402,29748
113.49,29657
113.577,30475
113.665,29965
113.753,30780
113.84,29968
113.928,29751
114.016,29640
114.103,29736
114.191,29488
114.278,29837
114.366,30069
114.454,29872
114.541,30084
114.629,29626
114.717,29768
114.804,30426
114.892,30428
114.979,29825
115.067,30509
115.155,30142
115.242,30332
115.33,30851
115.418,30005
115.505,29886
115.593,29590
115.68,30455
115.768,30584
115.856,30507
115.943,30143
116.031,30741
116.119,29965
116.206,29511
116.294,29454
116.382,29695
116.469,30455
116.557,29299
116.644,30451
116.732,30269
116.82,29875
116.907,30307
116.995,29710
117.083,30344
117.17,30477
117.258,29855
117.345,30688
117.433,30696
117.521,30190
117.608,30698
117.696,30242
117.784,30246
117.871,30137
117.959,30444
118.047,30632
118.134,29592
118.222,30888
118.309,29936
118.397,30666
118.485,31078
118.572,30203
118.66,30429
118.748,29922
118.835,30265
118.923,30364
119.01,29657
119.098,29497
119.186,29621
119.273,30663
119.361,30266
119.449,30627
119.536,30738
119.624,30896
119.711,30162
119.799,30865
119.887,31339
119.974,30606
120.062,30912
120.15,30665
120.237,29834
120.325,30478
120.413,30772
120.5,30371
120.588,30488
120.675,30450
120.763,30980
120.851,29931
120.938,31017
121.026,30001
121.114,30447
121.201,30396
121.289,29942
121.376,30759
121.464,31141
121.552,30683
121.639,31065
121.727,30857
121.815,30923
121.902,30707
121.99,30890
122.078,31325
122.165,30806
122.253,31439
122.34,30864
122.428,30278
122.516,30633
122.603,30892
122.691,30060
122.779,30228
122.866,31034
122.954,30574
123.041,30904
123.129,30486
123.217,31111
123.304,30525
123.392,31193
123.48,31432
123.567,30662
123.655,30389
123.742,31357
123.83,30726
123.918,30909
124.005,30786
124.093,30882
124.181,30558
124.268,31068
124.356,30365
124.444,30933
124.531,30548
124.619,31100
124.706,31205
124.794,31046
124.882,30607
124.969,31045
124.987,30858